subject_id,trial,block,evidence_clarity,rule_stability,decision_uncertainty,state_uncertainty,total_uncertainty,reward_magnitude,control_signal,effort_cost,accuracy,reaction_time,obtained_reward,confidence,uncertainty_tolerance
1,1,1,0.7311989040672405,0.9,0.26880109593275947,0.09999999999999998,0.18440054796637972,5,0.21807292519234767,0.04755580070194726,1,508.8727006225077,5,0.4967298051619338,0.6156354589595345
1,2,1,0.8301776945897705,0.9,0.16982230541022947,0.09999999999999998,0.13491115270511472,1,0.3458476874818096,0.11961062293651545,1,479.630086704446,1,0.5821389122990629,0.6156354589595345
1,3,1,0.7608484485919075,0.9,0.23915155140809252,0.09999999999999998,0.16957577570404625,2,0.17069530492336202,0.029136887122879537,1,563.9752634707843,2,0.4860868702389489,0.6156354589595345
1,4,1,0.8947511037682918,0.9,0.10524889623170819,0.09999999999999998,0.10262444811585408,5,0.5405619576772664,0.2922072300878788,1,465.4423236427028,5,0.6912313184911787,0.6156354589595345
1,5,1,0.8028468876827223,0.9,0.19715311231727772,0.09999999999999998,0.14857655615863885,10,0.5215758808979043,0.27204139953442485,0,487.17810134257974,0,0.6477526882900232,0.6156354589595345
1,6,1,0.7900998503939086,0.9,0.20990014960609138,0.09999999999999998,0.15495007480304568,2,0.350078451374977,0.12255492211710214,1,558.8491683557479,2,0.5704418471722221,0.6156354589595345
1,7,1,0.8368466053024314,0.9,0.16315339469756862,0.09999999999999998,0.1315766973487843,5,0.4977933821792255,0.24779825134143244,0,568.7362002886641,0,0.6503593378206087,0.6156354589595345
1,8,1,0.7346729307015544,0.9,0.26532706929844563,0.09999999999999998,0.1826635346492228,1,0.5008890218817661,0.25088981224167234,1,443.6679757080391,1,0.613365664014314,0.6156354589595345
1,9,1,0.8040136042355621,0.9,0.19598639576443788,0.09999999999999998,0.14799319788221893,2,0.3618158145101108,0.13091068362961492,0,511.5492418390858,0,0.5801381685970904,0.6156354589595345
1,10,1,0.7899508266739531,0.9,0.2100491733260469,0.09999999999999998,0.15502458666302343,2,0.4319906040625121,0.1866158819982941,0,547.3963675400864,0,0.6049984262811939,0.6156354589595345
1,11,1,0.7176985004103839,0.9,0.28230149958961614,0.09999999999999998,0.19115074979480806,5,0.477693469822681,0.22819105111123267,0,510.8509113602418,0,0.5976156275495921,0.6156354589595345
1,12,1,0.8494640220274762,0.9,0.15053597797252383,0.09999999999999998,0.1252679889862619,5,0.35490328702724344,0.12595634314274196,1,554.9461793041,5,0.5925886384952324,0.6156354589595345
1,13,1,0.8085392166316496,0.9,0.19146078336835037,0.09999999999999998,0.14573039168417518,1,0.32292386212546603,0.10427982073002699,1,485.76046102284766,1,0.56506682476479,0.6156354589595345
1,14,1,0.7846802961412739,0.9,0.21531970385872612,0.09999999999999998,0.15765985192936305,1,0.46915023329929134,0.22010194140477948,0,544.7703552285477,0,0.618762112527668,0.6156354589595345
1,15,1,0.8542540693371892,0.9,0.14574593066281083,0.09999999999999998,0.1228729653314054,1,0.4213886346123356,0.1775683813804485,0,524.5752584471419,0,0.6233691990945803,0.6156354589595345
1,16,1,0.8700077155579599,0.9,0.12999228444204014,0.09999999999999998,0.11499614222102006,10,0.34988788378985236,0.12242153122294124,1,490.2271054541299,10,0.5973279923615613,0.6156354589595345
1,17,1,0.7650366644053493,0.9,0.23496333559465066,0.09999999999999998,0.16748166779732532,5,0.2565457541934264,0.06581572399467396,0,556.4875720810994,0,0.5230486878087317,0.6156354589595345
1,18,1,0.776585374950758,0.9,0.22341462504924203,0.09999999999999998,0.161707312524621,5,0.5094801873341573,0.25957006128604804,1,537.3439482187677,5,0.6326931014655947,0.6156354589595345
1,19,1,0.8541934359909122,0.9,0.14580656400908776,0.09999999999999998,0.12290328200454387,5,0.3851858795632465,0.14836816181491186,1,450.07451305028974,5,0.6074709943892863,0.6156354589595345
1,20,1,0.8791527191347039,0.9,0.12084728086529606,0.09999999999999998,0.11042364043264802,1,0.4055738881093927,0.1644901787161702,0,393.19125758881046,0,0.625182651243641,0.6156354589595345
1,21,1,0.749858445829775,0.9,0.250141554170225,0.09999999999999998,0.17507077708511248,1,0.27443769897601655,0.07531605061925067,0,534.5943124761905,0,0.5256604503348613,0.6156354589595345
1,22,1,0.8197730932977072,0.9,0.1802269067022928,0.09999999999999998,0.1401134533511464,5,0.4556816944095743,0.20764580661998064,0,554.3751992109878,0,0.6258605526129004,0.6156354589595345
1,23,1,0.8607344153798229,0.9,0.13926558462017713,0.09999999999999998,0.11963279231008855,10,0.4954966796771608,0.24551695957109093,1,475.85554788346064,10,0.658293117998458,0.6156354589595345
1,24,1,0.7244175909401346,0.9,0.2755824090598654,0.09999999999999998,0.1877912045299327,1,0.3500076089839138,0.1225053263466363,1,504.95349313070005,1,0.5482440269841251,0.6156354589595345
1,25,1,0.7854215577252512,0.9,0.21457844227474876,0.09999999999999998,0.15728922113737437,10,0.2758848697758213,0.07611246137122187,1,468.64464009522675,10,0.537600966173911,0.6156354589595345
1,26,1,0.8068178838750883,0.9,0.19318211612491165,0.09999999999999998,0.14659105806245581,2,0.3679791376737671,0.13540864576312925,1,492.722560827863,2,0.5837228142374018,0.6156354589595345
1,27,1,0.8885819407825039,0.9,0.11141805921749615,0.09999999999999998,0.10570902960874806,2,0.4250788497516123,0.1806920285061538,1,416.27897785812524,2,0.6372175737142092,0.6156354589595345
1,28,1,0.7129784494217962,0.9,0.2870215505782038,0.09999999999999998,0.19351077528910188,2,0.2300963821264312,0.05294434506767264,1,533.7179006016266,2,0.4960297387704131,0.6156354589595345
1,29,1,0.7073773894709066,0.9,0.29262261052909344,0.09999999999999998,0.1963113052645467,1,0.41639775135462015,0.17338708733318406,1,534.4987331961383,1,0.569171430006213,0.6156354589595345
1,30,1,0.7690142496053366,0.9,0.2309857503946634,0.09999999999999998,0.1654928751973317,1,0.3558781765039557,0.12664927651178065,1,492.9851338918098,1,0.5657449993285004,0.6156354589595345
1,31,1,0.8971300908221201,0.9,0.10286990917787986,0.09999999999999998,0.10143495458893992,10,0.31736823716691015,0.10072259796243213,1,507.12663201965574,10,0.5918705249264864,0.6156354589595345
1,32,1,0.7484319876554851,0.9,0.25156801234451487,0.09999999999999998,0.17578400617225742,2,0.5567963209293861,0.31002214300049996,0,426.9630166191245,0,0.6415682134210936,0.6156354589595345
1,33,1,0.8071549368149517,0.9,0.19284506318504835,0.09999999999999998,0.14642253159252416,10,0.36319867290590063,0.1319132760006074,1,526.5182229242098,10,0.5817978360777247,0.6156354589595345
1,34,1,0.8391625613581764,0.9,0.16083743864182365,0.09999999999999998,0.1304187193209118,5,0.5732131456078429,0.3285733102976381,1,525.4837720172583,5,0.6840183509694224,0.6156354589595345
1,35,1,0.8024186116598562,0.9,0.19758138834014383,0.09999999999999998,0.1487906941700719,5,0.3361780705382432,0.11301569511081604,0,497.5227127434127,0,0.5686836039440153,0.6156354589595345
1,36,1,0.7795144042175044,0.9,0.2204855957824956,0.09999999999999998,0.1602427978912478,5,0.33340770115572,0.11116069518994189,0,498.6289934415185,0,0.5598693601963953,0.6156354589595345
1,37,1,0.8754678706761962,0.9,0.12453212932380375,0.09999999999999998,0.11226606466190187,5,0.3344033117755367,0.11182557492644682,0,474.1164142443877,0,0.5922975516453441,0.6156354589595345
1,38,1,0.8033271782542029,0.9,0.19667282174579714,0.09999999999999998,0.14833641087289856,1,0.37561893758815873,0.14108958627485707,0,496.6456936482785,0,0.5857822808287706,0.6156354589595345
1,39,1,0.8800836114326661,0.9,0.11991638856733389,0.09999999999999998,0.10995819428366693,5,0.3361148133218954,0.1129731677344126,0,457.04525910967067,0,0.5945990205466806,0.6156354589595345
1,40,1,0.8693322284476612,0.9,0.13066777155233877,0.09999999999999998,0.11533388577616938,10,0.4229585560632615,0.17889394014711912,0,509.6267206013734,0,0.6294216082470192,0.6156354589595345
1,41,1,0.7168279929990097,0.9,0.2831720070009903,0.09999999999999998,0.19158600350049515,10,0.4866858558795758,0.23686312231323522,0,563.9415887353266,0,0.6009288271454474,0.6156354589595345
1,42,1,0.7744565533123486,0.9,0.22554344668765136,0.09999999999999998,0.16277172334382567,1,0.429994779679327,0.18489551055147294,0,444.98929441725306,0,0.5986160325091243,0.6156354589595345
1,43,1,0.8303922519005201,0.9,0.16960774809947987,0.09999999999999998,0.13480387404973992,1,0.2708950720605635,0.0733841400666979,1,512.0872737303092,1,0.5497867464180382,0.6156354589595345
1,44,1,0.8488341046113125,0.9,0.15116589538868752,0.09999999999999998,0.12558294769434375,5,0.4832701299970728,0.23355001854738766,1,584.1875204412933,5,0.648498347422534,0.6156354589595345
1,45,1,0.7735431606118867,0.9,0.22645683938811334,0.09999999999999998,0.16322841969405666,5,0.4666129778721362,0.21772767111870264,0,427.3924462524068,0,0.6136100295956365,0.6156354589595345
1,46,1,0.797348430591891,0.9,0.20265156940810902,0.09999999999999998,0.1513257847040545,10,0.5299264127049841,0.28082200288237313,1,519.3030943253177,10,0.6492045488814716,0.6156354589595345
1,47,1,0.8153807769252718,0.9,0.18461922307472822,0.09999999999999998,0.1423096115373641,10,0.3689009587185174,0.13608791734344128,1,530.9826407965984,10,0.5870465975250799,0.6156354589595345
1,48,1,0.8144008398418366,0.9,0.18559916015816336,0.09999999999999998,0.14279958007908167,10,0.2992744488814705,0.08956519575330789,0,537.0360498977367,0,0.5568693015868581,0.6156354589595345
1,49,1,0.8907857154005174,0.9,0.10921428459948257,0.09999999999999998,0.10460714229974127,1,0.4273297278436345,0.18261069629891472,0,513.9779349891855,0,0.6390104219472222,0.6156354589595345
1,50,1,0.7661500609341028,0.9,0.23384993906589724,0.09999999999999998,0.1669249695329486,2,0.3685436980576192,0.1358244573779856,1,552.075610799303,2,0.5700497914774211,0.6156354589595345
1,51,2,0.4702273343033714,0.9,0.5297726656966286,0.09999999999999998,0.3148863328483143,10,0.22752822737977002,0.05176909425458033,0,558.3121595243737,0,0.42049818269618133,0.6156354589595345
1,52,2,0.4688426281452623,0.9,0.5311573718547378,0.09999999999999998,0.3155786859273689,5,0.37116242713123254,0.13776154731394752,0,565.2436183623638,0,0.4692263950920883,0.6156354589595345
1,53,2,0.49801077002085264,0.9,0.5019892299791473,0.09999999999999998,0.30099461498957364,2,0.36953488326072076,0.13655602994651453,1,501.99180822402025,2,0.4786561291794347,0.6156354589595345
1,54,2,0.46973395898493486,0.9,0.5302660410150651,0.09999999999999998,0.31513302050753256,1,0.3635101773910263,0.1321396490668554,1,627.2891186217543,1,0.46691154834851534,0.6156354589595345
1,55,2,0.46187223109570275,0.9,0.5381277689042973,0.09999999999999998,0.3190638844521486,5,0.5263007097644278,0.27699243709854043,1,471.2940533905002,5,0.519656638232459,0.6156354589595345
1,56,2,0.30103697255479733,0.9,0.6989630274452027,0.09999999999999998,0.3994815137226013,10,0.5424639997695229,0.2942671910459489,0,622.3763361488581,0,0.4631390731394878,0.6156354589595345
1,57,2,0.4591585338872202,0.9,0.5408414661127798,0.09999999999999998,0.3204207330563899,10,0.3049829314609082,0.09301458848248903,0,665.6453312261312,0,0.44341967196806364,0.6156354589595345
1,58,2,0.3656305334949464,0.9,0.6343694665050537,0.09999999999999998,0.3671847332525268,2,0.29658377656835166,0.08796193652354595,0,598.3622694157547,0,0.4102490042147738,0.6156354589595345
1,59,2,0.3061000499878099,0.9,0.6938999500121901,0.09999999999999998,0.396949975006095,10,0.28544191754725967,0.08147708829305658,0,611.8420940888027,0,0.38759289025254406,0.6156354589595345
1,60,2,0.35430858316394837,0.9,0.6456914168360517,0.09999999999999998,0.37284570841802583,10,0.4041393124167729,0.16332858384070198,1,582.2627107628293,10,0.44030599788057073,0.6156354589595345
1,61,2,0.4062709263136296,0.9,0.5937290736863704,0.09999999999999998,0.3468645368431852,5,0.392627573764361,0.15415641168008876,1,585.9122917597227,5,0.4547872276977686,0.6156354589595345
1,62,2,0.4939073734228318,0.9,0.5060926265771681,0.09999999999999998,0.30304631328858406,2,0.5604924586601759,0.31415179621492906,1,503.43616074677226,2,0.5437954860742857,0.6156354589595345
1,63,2,0.3877942841411272,0.9,0.6122057158588727,0.09999999999999998,0.35610285792943636,5,0.39875300923568535,0.15900396237451456,1,538.0417107570556,5,0.45032653255472926,0.6156354589595345
1,64,2,0.38566289498802153,0.9,0.6143371050119785,0.09999999999999998,0.3571685525059892,10,0.3523206283453656,0.12412982515767323,1,555.1934411252128,10,0.4346571134976308,0.6156354589595345
1,65,2,0.3500485796329191,0.9,0.6499514203670809,0.09999999999999998,0.3749757101835404,2,0.496217179336691,0.24623148906886178,0,591.7658518763349,0,0.46758603996305076,0.6156354589595345
1,66,2,0.4314222657000334,0.9,0.5685777342999666,0.09999999999999998,0.3342888671499833,1,0.3326243196398563,0.11063893801587728,1,659.2100180686018,1,0.4435714227454658,0.6156354589595345
1,67,2,0.3711945357302523,0.9,0.6288054642697477,0.09999999999999998,0.36440273213487384,1,0.44063844848113554,0.19416224227986234,1,524.4934279662523,1,0.45783293091803207,0.6156354589595345
1,68,2,0.318831397653712,0.9,0.681168602346288,0.09999999999999998,0.39058430117314397,2,0.5270181717491562,0.27774815335382314,0,603.2051758484944,0,0.46529442312891,0.6156354589595345
1,69,2,0.31956683213020026,0.9,0.6804331678697997,0.09999999999999998,0.39021658393489983,10,0.4275977483127362,0.18283983436212212,0,629.1450130712665,0,0.4352627158664927,0.6156354589595345
1,70,2,0.42995473652855265,0.9,0.5700452634714473,0.09999999999999998,0.33502263173572366,2,0.6198401271881097,0.384201783272572,1,604.685967159468,2,0.53857851239321,0.6156354589595345
1,71,2,0.37492252292529427,0.9,0.6250774770747057,0.09999999999999998,0.36253873853735286,2,0.4741846686414692,0.22485109997461994,0,599.1399187866416,0,0.4698678092505427,0.6156354589595345
1,72,2,0.43679275387962824,0.9,0.5632072461203718,0.09999999999999998,0.33160362306018587,10,0.4843869000719726,0.23463066896133516,1,521.0315530529188,10,0.49607941299251423,0.6156354589595345
1,73,2,0.41715511625469265,0.9,0.5828448837453073,0.09999999999999998,0.34142244187265364,5,0.5282871910611331,0.2790873562392621,0,601.2236530970769,0,0.5032478232031711,0.6156354589595345
1,74,2,0.325700070646782,0.9,0.6742999293532179,0.09999999999999998,0.38714996467660895,1,0.5502639305484975,0.3027903932626817,0,564.6672171301202,0,0.47503965229861284,0.6156354589595345
1,75,2,0.49223811276478285,0.9,0.5077618872352172,0.09999999999999998,0.3038809436176086,2,0.38904991554184754,0.1513598367831187,1,508.8550802608734,2,0.4834720582375157,0.6156354589595345
1,76,2,0.3754518166455952,0.9,0.6245481833544049,0.09999999999999998,0.3622740916772024,1,0.5020210312998994,0.25202511586741455,1,527.345148382141,1,0.4789388632528367,0.6156354589595345
1,77,2,0.36379512605875225,0.9,0.6362048739412478,0.09999999999999998,0.3681024369706239,2,0.3632207387579554,0.1319293050638749,0,638.2046762311018,0,0.4307079313461289,0.6156354589595345
1,78,2,0.39920749085868124,0.9,0.6007925091413188,0.09999999999999998,0.35039625457065937,2,0.565466745061799,0.31975263977078555,0,621.1997142381364,0,0.5084665304686117,0.6156354589595345
1,79,2,0.44701420876077713,0.9,0.5529857912392229,0.09999999999999998,0.3264928956196114,1,0.46798215388340464,0.21900729635335062,0,575.8796478916287,0,0.49434820487204895,0.6156354589595345
1,80,2,0.41370405674999167,0.9,0.5862959432500083,0.09999999999999998,0.34314797162500416,5,0.46594432628175614,0.21710411519415962,0,562.2163280247647,0,0.4814542521014942,0.6156354589595345
1,81,2,0.4552825921483994,0.9,0.5447174078516006,0.09999999999999998,0.3223587039258003,10,0.4796844310474097,0.23009715338927716,1,602.2912442788745,10,0.5013476378178908,0.6156354589595345
1,82,2,0.43596895598004914,0.9,0.5640310440199509,0.09999999999999998,0.3320155220099754,5,0.4238161850369953,0.17962015869931264,0,570.3041908979163,0,0.4755435555578428,0.6156354589595345
1,83,2,0.40105047448957143,0.9,0.5989495255104286,0.09999999999999998,0.3494747627552143,10,0.3154820892990652,0.09952894866850334,1,531.1574650723117,10,0.42787714911627045,0.6156354589595345
1,84,2,0.3106970593494738,0.9,0.6893029406505262,0.09999999999999998,0.3946514703252631,1,0.516304810957193,0.26657065781754286,0,560.2578072834754,0,0.4589464439258334,0.6156354589595345
1,85,2,0.41468757762465724,0.9,0.5853124223753428,0.09999999999999998,0.34265621118767137,5,0.5802372912660548,0.33667531417576857,1,651.9333936353902,5,0.5193795841316798,0.6156354589595345
1,86,2,0.48923890857633806,0.9,0.510761091423662,0.09999999999999998,0.305380545711831,10,0.3864943445760909,0.14937787838930208,0,552.5238769436497,0,0.4815429725015384,0.6156354589595345
1,87,2,0.3883061002746754,0.9,0.6116938997253246,0.09999999999999998,0.3558469498626623,5,0.6533101139138906,0.4268141049421807,0,561.6522183232859,0,0.5324923763502709,0.6156354589595345
1,88,2,0.43760600203500777,0.9,0.5623939979649922,0.09999999999999998,0.3311969989824961,2,0.38213372485763614,0.14602618367357156,1,573.3300877835808,2,0.4621875914961441,0.6156354589595345
1,89,2,0.440193826291824,0.9,0.559806173708176,0.09999999999999998,0.329903086854088,2,0.5525776719337039,0.30534208351967207,1,532.0279998971558,2,0.5201887526910207,0.6156354589595345
1,90,2,0.40266523373847857,0.9,0.5973347662615214,0.09999999999999998,0.3486673831307607,2,0.5851688922368299,0.34242263244167864,0,522.2142391867792,0,0.5162361013801637,0.6156354589595345
1,91,2,0.49720021276457416,0.9,0.5027997872354258,0.09999999999999998,0.3013998936177129,10,0.5878340758394998,0.34554890071807876,0,483.9170540727141,0,0.5546305271494475,0.6156354589595345
1,92,2,0.3755975180244509,0.9,0.6244024819755492,0.09999999999999998,0.36220124098777456,5,0.5596653821127873,0.3132253399354522,1,544.6969075868824,5,0.497376322592932,0.6156354589595345
1,93,2,0.3985250208581718,0.9,0.6014749791418281,0.09999999999999998,0.35073748957091405,1,0.614745394828703,0.377911900463098,0,448.0013389079277,0,0.5241968243751447,0.6156354589595345
1,94,2,0.45343897062171434,0.9,0.5465610293782857,0.09999999999999998,0.3232805146891428,5,0.5890327527917285,0.3469595838614016,0,576.624034200772,0,0.5376647133056565,0.6156354589595345
1,95,2,0.4924345096949084,0.9,0.5075654903050917,0.09999999999999998,0.30378274515254583,5,0.37122379732019567,0.13780710769682572,0,551.7499626267783,0,0.4773348339758842,0.6156354589595345
1,96,2,0.3872671663213112,0.9,0.6127328336786888,0.09999999999999998,0.3563664168393444,2,0.4945126056523435,0.2445427171490702,1,558.0882845256588,2,0.4809592517273929,0.6156354589595345
1,97,2,0.41077085688026416,0.9,0.5892291431197358,0.09999999999999998,0.3446145715598679,10,0.3983045868874159,0.15864654393555502,0,515.1983600491704,0,0.45821422538350554,0.6156354589595345
1,98,2,0.43938501117276296,0.9,0.560614988827237,0.09999999999999998,0.3303074944136185,5,0.4529887655745745,0.20519882173677684,0,602.6088280906832,0,0.4865278435032502,0.6156354589595345
1,99,2,0.3554762365962265,0.9,0.6445237634037735,0.09999999999999998,0.37226188170188673,10,0.35608402441821646,0.12679583244587297,1,655.5273686788719,10,0.4256328168712119,0.6156354589595345
1,100,2,0.3531875849928478,0.9,0.6468124150071521,0.09999999999999998,0.37340620750357606,1,0.5115241047220921,0.26165690971173783,0,654.6779937396578,0,0.47355581061378876,0.6156354589595345
1,101,3,0.8627590039413897,0.4,0.1372409960586103,0.6,0.36862049802930513,10,0.41124543098998145,0.1691228045101356,1,549.2838584674479,10,0.44551571868843665,0.6156354589595345
1,102,3,0.8881063654270767,0.4,0.11189363457292334,0.6,0.35594681728646166,5,0.5461704989425893,0.2983022139151969,1,625.999926563161,5,0.49790801543087704,0.6156354589595345
1,103,3,0.8865456966708026,0.4,0.11345430332919737,0.6,0.3567271516645987,2,0.3490413212951733,0.12182984397148039,1,581.5932593778917,2,0.4339008266358497,0.6156354589595345
1,104,3,0.8555204567470451,0.4,0.14447954325295487,0.6,0.3722397716264774,2,0.30567600459201616,0.09343781978333829,0,648.7979497370122,0,0.4098257334122563,0.6156354589595345
1,105,3,0.8684237846271418,0.4,0.13157621537285824,0.6,0.3657881076864291,1,0.4968718301833258,0.24688161562972777,1,535.830464689131,1,0.47466695798572256,0.6156354589595345
1,106,3,0.8499821498939943,0.4,0.15001785010600566,0.6,0.3750089250530028,5,0.6294651843148278,0.3962264182645001,0,565.1790831393154,0,0.5092005985668155,0.6156354589595345
1,107,3,0.8699294781354823,0.4,0.13007052186451773,0.6,0.36503526093225885,1,0.4008099044342617,0.16064857949260197,1,536.9672239195661,1,0.44473244772630416,0.6156354589595345
1,108,3,0.7549463594051817,0.4,0.24505364059481827,0.6,0.4225268202974091,10,0.5636301904541177,0.31767899159134494,0,514.1629224519174,0,0.4514772489802536,0.6156354589595345
1,109,3,0.7716325436065681,0.4,0.22836745639343192,0.6,0.41418372819671595,10,0.4897369543135429,0.23984228442030522,1,553.9798060994395,10,0.4363560742717695,0.6156354589595345
1,110,3,0.8662742980125002,0.4,0.13372570198749978,0.6,0.3668628509937499,2,0.4923316362910757,0.24239044009304803,1,618.4879509904401,2,0.4724252987865819,0.6156354589595345
1,111,3,0.875330720531669,0.4,0.12466927946833095,0.6,0.36233463973416546,1,0.4176146211457785,0.17440197179473213,1,693.9018193662164,1,0.4519818690555187,0.6156354589595345
1,112,3,0.8569336527888619,0.4,0.1430663472111381,0.6,0.37153317360556903,2,0.3802796080446426,0.144612580294587,1,607.7345642771285,2,0.4337299724023828,0.6156354589595345
1,113,3,0.7029089331335764,0.4,0.2970910668664236,0.6,0.4485455334332118,2,0.6615355701690069,0.43762931059883303,1,632.1097725425038,2,0.458130605764647,0.6156354589595345
1,114,3,0.718200418210266,0.4,0.28179958178973397,0.6,0.44089979089486697,2,0.518137670655679,0.26846664575249285,0,471.9128787963718,0,0.4243955445569848,0.6156354589595345
1,115,3,0.779308556464254,0.4,0.220691443535746,0.6,0.410345721767873,5,0.679309868245997,0.46146189709639385,0,566.5528457522868,0,0.49510612414434085,0.6156354589595345
1,116,3,0.7918693615892345,0.4,0.2081306384107655,0.6,0.40406531920538274,1,0.3164476813607774,0.1001391350386121,1,586.7974426807062,1,0.39225841438727443,0.6156354589595345
1,117,3,0.8960065150570955,0.4,0.1039934849429045,0.6,0.35199674247145224,1,0.3559528036132372,0.12670239840012382,1,539.8909322360031,1,0.4393309168981724,0.6156354589595345
1,118,3,0.768312642091309,0.4,0.231687357908691,0.6,0.4158436789543455,5,0.38028632276650326,0.1446176872832691,1,611.108135155818,5,0.4031514901484577,0.6156354589595345
1,119,3,0.8793576819812023,0.4,0.12064231801879766,0.6,0.3603211590093988,5,0.5200986518475369,0.2705026076536254,1,556.8397015970157,5,0.4861874719026038,0.6156354589595345
1,120,3,0.7447698131812641,0.4,0.2552301868187359,0.6,0.42761509340936793,1,0.4410092014842807,0.19448911579380287,1,544.5399662612651,1,0.41240595859391066,0.6156354589595345
1,121,3,0.7177405067514111,0.4,0.2822594932485889,0.6,0.44112974662429444,1,0.2836093372038557,0.08043425614921035,0,629.6250528064776,0,0.35868553775927015,0.6156354589595345
1,122,3,0.7257496796599288,0.4,0.27425032034007124,0.6,0.4371251601700356,2,0.4867673792310089,0.2369424814834248,0,584.5675142150063,0,0.41843197522453496,0.6156354589595345
1,123,3,0.8255800778981816,0.4,0.17441992210181845,0.6,0.3872099610509092,5,0.3589922467998043,0.1288754332623716,1,582.3470269915615,5,0.41638845592398227,0.6156354589595345
1,124,3,0.7005190048767292,0.4,0.29948099512327075,0.6,0.44974049756163537,10,0.5622622249958404,0.3161388096572731,1,616.5713122712717,10,0.4298248173022318,0.6156354589595345
1,125,3,0.7418698646673421,0.4,0.25813013533265794,0.6,0.42906506766632896,5,0.4909615972588583,0.24104328998296937,0,582.4513080534713,0,0.42562102932154416,0.6156354589595345
1,126,3,0.8062531507947068,0.4,0.19374684920529317,0.6,0.3968734246026466,2,0.5697123418669037,0.3245721524754717,0,512.6940009042765,0,0.4733676145545726,0.6156354589595345
1,127,3,0.8023354884231332,0.4,0.19766451157686682,0.6,0.3988322557884334,5,0.3681982522145549,0.13556995293385296,1,499.8752720956917,5,0.411258328459016,0.6156354589595345
1,128,3,0.8474810412187639,0.4,0.1525189587812361,0.6,0.37625947939061805,10,0.4135695063939812,0.17103973661896127,1,517.4434929970674,10,0.4408502899178645,0.6156354589595345
1,129,3,0.878105456147979,0.4,0.12189454385202103,0.6,0.3609472719260105,10,0.255845286955937,0.06545681085756574,0,563.1479528206848,0,0.4012756783340269,0.6156354589595345
1,130,3,0.79591642035085,0.4,0.20408357964915003,0.6,0.402041789824575,10,0.7235959874259958,0.5235911530190019,0,598.9795728391379,0,0.5153191858533964,0.6156354589595345
1,131,3,0.7863319092459359,0.4,0.21366809075406412,0.6,0.40683404537703205,5,0.33533056441196585,0.11244658742884758,0,531.7238822965506,0,0.3960363144883252,0.6156354589595345
1,132,3,0.8215110444587146,0.4,0.1784889555412854,0.6,0.3892444777706427,5,0.3423670501549574,0.1172151970318071,1,610.6851001502256,5,0.4099290443704364,0.6156354589595345
1,133,3,0.7305718278368664,0.4,0.26942817216313364,0.6,0.4347140860815668,5,0.6151002598926951,0.3783483297200611,1,566.8387783061619,5,0.45649671324167057,0.6156354589595345
1,134,3,0.8611729773482287,0.4,0.13882702265177127,0.6,0.3694135113258856,10,0.22584353230623538,0.051005301084557586,0,622.4718102449007,0,0.3865001843504311,0.6156354589595345
1,135,3,0.7224077804336104,0.4,0.2775922195663896,0.6,0.4387961097831948,2,0.5772250988428237,0.3331888147341076,1,581.1765260649489,2,0.4425724306090889,0.6156354589595345
1,136,3,0.8950134325890285,0.4,0.10498656741097145,0.6,0.3524932837054857,2,0.5210028571865027,0.2714439771964994,0,504.7699371530678,0,0.49242978276570326,0.6156354589595345
1,137,3,0.811352578602786,0.4,0.18864742139721402,0.6,0.394323710698607,10,0.607984345285242,0.36964496411192443,1,553.2105202194161,10,0.48695899575354756,0.6156354589595345
1,138,3,0.8935988133008469,0.4,0.1064011866991531,0.6,0.35320059334957654,10,0.4991045958514187,0.249105397600008,1,419.001976196746,10,0.4848099815518102,0.6156354589595345
1,139,3,0.7229673649478406,0.4,0.27703263505215936,0.6,0.43851631752607967,2,0.4760432896869477,0.2266172136559712,1,590.8759644085512,2,0.4143871108921735,0.6156354589595345
1,140,3,0.8864028684513868,0.4,0.11359713154861317,0.6,0.3567985657743066,1,0.4070527697950431,0.16569195739781636,1,568.7042263186083,1,0.4525091797817031,0.6156354589595345
1,141,3,0.7268829353877948,0.4,0.2731170646122052,0.6,0.4365585323061026,5,0.3567663572751051,0.12728223368334793,0,606.7740471759772,0,0.382229213830394,0.6156354589595345
1,142,3,0.7175736222485313,0.4,0.2824263777514687,0.6,0.44121318887573435,5,0.6088536086760751,0.37070271679787914,0,610.0605032601796,0,0.44950308877893563,0.6156354589595345
1,143,3,0.7943152377100317,0.4,0.20568476228996835,0.6,0.40284238114498416,5,0.46508877058873016,0.21630756452773647,0,582.3205075711583,0,0.4374444608279943,0.6156354589595345
1,144,3,0.8491949051097436,0.4,0.1508050948902564,0.6,0.3754025474451282,2,0.5150776033095854,0.26530493743114664,0,530.913744566789,0,0.47315680572505386,0.6156354589595345
1,145,3,0.736246613233132,0.4,0.263753386766868,0.6,0.431876693383434,5,0.5136979416582664,0.2638855752639397,1,595.8510950103368,5,0.42998353991679217,0.6156354589595345
1,146,3,0.856302896350283,0.4,0.143697103649717,0.6,0.3718485518248585,5,0.41741742783761715,0.17423730906257232,1,599.2292486867278,5,0.44517640498244176,0.6156354589595345
1,147,3,0.7328531595861986,0.4,0.26714684041380143,0.6,0.4335734202069007,1,0.5612090157393284,0.3149555593471057,0,509.39490504070204,0,0.44215514156368935,0.6156354589595345
1,148,3,0.7632393164592989,0.4,0.23676068354070112,0.6,0.41838034177035055,2,0.6113137352560873,0.37370448291274966,1,543.9789603544189,2,0.4685858720001927,0.6156354589595345
1,149,3,0.7753888858849814,0.4,0.22461111411501855,0.6,0.41230555705750926,5,0.5601148532992751,0.3137286488864685,1,678.1027080806343,5,0.4584354148180116,0.6156354589595345
1,150,3,0.8154972541812251,0.4,0.1845027458187749,0.6,0.39225137290938744,1,0.45923151656824684,0.210893585809572,1,612.9075090032419,1,0.4434229754008522,0.6156354589595345
1,151,4,0.4812944221929094,0.4,0.5187055778070906,0.6,0.5593527889035452,5,0.30568003594213966,0.0934402843735878,0,708.8619289494749,0,0.28767213321111135,0.6156354589595345
1,152,4,0.4461098273618603,0.4,0.5538901726381398,0.6,0.5769450863190699,2,0.5738510234316604,0.32930499709356403,0,594.9340278575148,0,0.3329127044322623,0.6156354589595345
1,153,4,0.4066922183952643,0.4,0.5933077816047356,0.6,0.5966538908023677,5,0.6288834511680389,0.39549439515302315,0,666.6025701763895,0,0.32850190118252,0.6156354589595345
1,154,4,0.3286255971096939,0.4,0.6713744028903061,0.6,0.6356872014451531,10,0.7090603784311313,0.5027666202608992,0,639.901846592779,0,0.31131628468272554,0.6156354589595345
1,155,4,0.3684163497431815,0.4,0.6315836502568185,0.6,0.6157918251284092,2,0.3274788068494724,0.10724236893555404,0,685.7801033557795,0,0.25501410478017633,0.6156354589595345
1,156,4,0.4207915744145025,0.4,0.5792084255854975,0.6,0.5896042127927488,5,0.49946876024293285,0.24946904245861234,1,645.799412465774,5,0.3076878311262897,0.6156354589595345
1,157,4,0.4444505136786132,0.4,0.5555494863213868,0.6,0.5777747431606934,2,0.5429832362493427,0.29483079484780955,0,612.2790839275268,0,0.3257432466120616,0.6156354589595345
1,158,4,0.4432358149465904,0.4,0.5567641850534095,0.6,0.5783820925267047,5,0.4346051783855963,0.188881661079576,0,604.408391170881,0,0.30242761668064433,0.6156354589595345
1,159,4,0.4166783589532241,0.4,0.5833216410467759,0.6,0.591660820523388,10,0.37658521837244086,0.14181642669661895,0,609.5865705201772,0,0.28105683927491765,0.6156354589595345
1,160,4,0.48237048176859293,0.4,0.517629518231407,0.6,0.5588147591157036,10,0.7789957444894362,0.6068343699326509,1,596.2059123845287,10,0.3924333330323551,0.6156354589595345
1,161,4,0.4744247817888303,0.4,0.5255752182111697,0.6,0.5627876091055848,10,0.6561405249212773,0.4305203884439693,1,636.8434811843024,10,0.36204257927898176,0.6156354589595345
1,162,4,0.31378430787344375,0.4,0.6862156921265563,0.6,0.6431078460632782,5,0.5787557883533123,0.334958262552464,0,640.0615471126372,0,0.28172277692274045,0.6156354589595345
1,163,4,0.39016787428082644,0.4,0.6098321257191736,0.6,0.6049160628595868,2,0.48586945673450505,0.23606912898748306,1,608.1184110378632,2,0.29352157752167757,0.6156354589595345
1,164,4,0.4674981578004984,0.4,0.5325018421995016,0.6,0.5662509210997508,1,0.5422820202545962,0.2940697894914062,0,670.356650228013,0,0.33448170284492323,0.6156354589595345
1,165,4,0.37980054077402603,0.4,0.620199459225974,0.6,0.610099729612987,1,0.4705566738369054,0.2214235832924518,0,669.0130130863126,0,0.28668522237421795,0.6156354589595345
1,166,4,0.4207443063460278,0.4,0.5792556936539722,0.6,0.5896278468269861,5,0.6291300101283283,0.3958045696440704,0,497.93848433635645,0,0.334274795027568,0.6156354589595345
1,167,4,0.36926919887319226,0.4,0.6307308011268078,0.6,0.6153654005634039,2,0.6358805616039647,0.4043440886257735,0,619.0969780076376,0,0.3146081322693274,0.6156354589595345
1,168,4,0.30656933404868764,0.4,0.6934306659513123,0.6,0.6467153329756561,5,0.5369035951846982,0.2882654705222543,0,626.6880618868436,0,0.27148223743667155,0.6156354589595345
1,169,4,0.3837850899009096,0.4,0.6162149100990904,0.6,0.6081074550495451,10,0.653476326781238,0.4270313096634994,1,582.173802420972,10,0.3239925228588147,0.6156354589595345
1,170,4,0.34401944281621943,0.4,0.6559805571837806,0.6,0.6279902785918903,2,0.45399478081395767,0.20611126100631347,0,668.8310709285774,0,0.270450096669723,0.6156354589595345
1,171,4,0.3297325455506226,0.4,0.6702674544493774,0.6,0.6351337272246886,2,0.5688981727027745,0.3236451309045559,1,690.1327751457476,2,0.2862190143190291,0.6156354589595345
1,172,4,0.3599191823532954,0.4,0.6400808176467045,0.6,0.6200404088233522,10,0.5546598161979801,0.30764751170477705,1,629.3398866717075,10,0.29535395409067344,0.6156354589595345
1,173,4,0.4796108578881427,0.4,0.5203891421118573,0.6,0.5601945710559286,10,0.7604936786490569,0.578350635265175,1,563.3297455348682,10,0.3871373387457873,0.6156354589595345
1,174,4,0.46731296265846656,0.4,0.5326870373415334,0.6,0.5663435186707667,5,0.6755962591038209,0.45643030531507717,0,469.37586183837925,0,0.36331658892569463,0.6156354589595345
1,175,4,0.3801526121750652,0.4,0.6198473878249349,0.6,0.6099236939124675,2,0.5144995737986151,0.2647098114389566,0,643.4419638999511,0,0.2953851996592531,0.6156354589595345
1,176,4,0.31510067276077786,0.4,0.6848993272392221,0.6,0.6424496636196111,5,0.41941368346562136,0.1759078378782004,0,611.9026963597773,0,0.25375591999302993,0.6156354589595345
1,177,4,0.3817468342196193,0.4,0.6182531657803807,0.6,0.6091265828901904,5,0.524225715095429,0.2748126003673139,0,681.5297324464838,0,0.29788965685299673,0.6156354589595345
1,178,4,0.3507777128086609,0.4,0.6492222871913391,0.6,0.6246111435956696,5,0.5645484179700879,0.31871491623252907,1,624.4112439823316,5,0.2936570207054978,0.6156354589595345
1,179,4,0.4305492215703749,0.4,0.5694507784296251,0.6,0.5847253892148125,5,0.6285928063602669,0.39512891620787605,0,643.7283080742346,0,0.338156621894408,0.6156354589595345
1,180,4,0.4206394804353959,0.4,0.5793605195646041,0.6,0.5896802597823021,2,0.5078248782802941,0.2578861070003955,0,684.0880802748736,0,0.3093451561748761,0.6156354589595345
1,181,4,0.3409968590831642,0.4,0.6590031409168358,0.6,0.6295015704584179,5,0.4958355748091562,0.24585291724632632,0,626.4108000942488,0,0.27710236565961105,0.6156354589595345
1,182,4,0.44718092263920045,0.4,0.5528190773607995,0.6,0.5764095386803998,1,0.3728586144172153,0.13902354634512562,0,723.8713468755343,0,0.2907649069037877,0.6156354589595345
1,183,4,0.4634887123476882,0.4,0.5365112876523118,0.6,0.5682556438261559,10,0.6378368344535708,0.4068358273857518,1,581.3211454070906,10,0.3535634048044819,0.6156354589595345
1,184,4,0.3068456221641058,0.4,0.6931543778358942,0.6,0.646577188917947,10,0.43339244315347925,0.18782900978254174,0,738.3736214592543,0,0.2532967933215372,0.6156354589595345
1,185,4,0.3872253058270633,0.4,0.6127746941729366,0.6,0.6063873470864682,10,0.5135609997777184,0.26374490049268967,0,643.4337658773015,0,0.2978783802344826,0.6156354589595345
1,186,4,0.49707346244834694,0.4,0.5029265375516531,0.6,0.5514632687758265,5,0.4985861201743831,0.24858811923054436,1,682.8825789885456,5,0.3360854599004671,0.6156354589595345
1,187,4,0.3537354718769892,0.4,0.6462645281230108,0.6,0.6231322640615053,10,0.4747883573496217,0.22542398427475208,1,720.4992446568531,10,0.27790007461140176,0.6156354589595345
1,188,4,0.4290108335538659,0.4,0.5709891664461342,0.6,0.5854945832230671,2,0.544476462713941,0.2964546184494856,1,638.5798139636096,2,0.32009692993970257,0.6156354589595345
1,189,4,0.3544614653038738,0.4,0.6455385346961262,0.6,0.6227692673480631,5,0.5661716006413131,0.32055028137274655,0,695.8182176277697,0,0.2954040301842896,0.6156354589595345
1,190,4,0.39961815070220114,0.4,0.6003818492977988,0.6,0.6001909246488994,2,0.7477142684207563,0.5590766271999867,0,641.1654295422468,0,0.3493760128176139,0.6156354589595345
1,191,4,0.3412842543521206,0.4,0.6587157456478794,0.6,0.6293578728239397,2,0.5137134110986772,0.26390146874263853,0,605.1255526461644,0,0.28052297931227194,0.6156354589595345
1,192,4,0.44643691569181243,0.4,0.5535630843081876,0.6,0.5767815421540938,2,0.7064984853349441,0.4991401097805702,1,653.1031173636403,2,0.3611108286399149,0.6156354589595345
1,193,4,0.48288238918499193,0.4,0.5171176108150081,0.6,0.558558805407504,2,0.674731513558272,0.4552626153886366,0,575.3191234429498,0,0.3696477399834312,0.6156354589595345
1,194,4,0.3707742753122499,0.4,0.6292257246877502,0.6,0.6146128623438751,2,0.5167948833430431,0.26707695144954957,0,642.6322885136728,0,0.2922766192515156,0.6156354589595345
1,195,4,0.3490698219362642,0.4,0.6509301780637358,0.6,0.6254650890318678,1,0.5324361094145871,0.2834882106085421,0,694.7755242896149,0,0.2869754109019716,0.6156354589595345
1,196,4,0.4443065722243811,0.4,0.5556934277756189,0.6,0.5778467138878094,10,0.44533903075007036,0.1983268523094121,0,760.4392143332053,0,0.3050773106886754,0.6156354589595345
1,197,4,0.4873659478649516,0.4,0.5126340521350484,0.6,0.5563170260675242,1,0.3581730159544929,0.12828790935793744,0,624.88310728778,0,0.3012991214167647,0.6156354589595345
1,198,4,0.33240277557831693,0.4,0.667597224421683,0.6,0.6337986122108414,10,0.5569682588514769,0.3102136413680458,0,601.5043164890369,0,0.28508196856754037,0.6156354589595345
1,199,4,0.3668487781633922,0.4,0.6331512218366078,0.6,0.6165756109183038,2,0.34026462397858304,0.11578001433128651,0,633.4029555289559,0,0.2569450723283987,0.6156354589595345
1,200,4,0.38255871012135045,0.4,0.6174412898786495,0.6,0.6087206449393248,1,0.4870857572108803,0.23725253487769665,1,724.5300456605559,1,0.29093297800069456,0.6156354589595345
2,1,1,0.7721947793880053,0.9,0.2278052206119947,0.09999999999999998,0.16390261030599734,10,0.6429815378954906,0.41342525807445024,1,535.379702323681,10,0.6868462875749289,0.49438565601137713
2,2,1,0.7173410423724367,0.9,0.2826589576275633,0.09999999999999998,0.19132947881378165,10,0.6214073267970642,0.38614706579707336,0,525.7873982286192,0,0.6555921540080675,0.49438565601137713
2,3,1,0.8317566733421435,0.9,0.16824332665785646,0.09999999999999998,0.13412166332892822,2,0.5732203495937821,0.32858156918841774,0,483.4818879881113,0,0.681108709761673,0.49438565601137713
2,4,1,0.8293329838234327,0.9,0.17066701617656732,0.09999999999999998,0.13533350808828365,5,0.6513942127997623,0.424314420469022,1,482.15301385880883,5,0.7139526203724404,0.49438565601137713
2,5,1,0.8394840534493679,0.9,0.16051594655063206,0.09999999999999998,0.13025797327531602,1,0.5490131248079887,0.30141541121143217,1,476.4742437034593,1,0.6736209072968181,0.49438565601137713
2,6,1,0.8590683675918195,0.9,0.14093163240818052,0.09999999999999998,0.12046581620409025,5,0.5687023901461834,0.3234224085579818,1,480.757312821396,5,0.6898636881679581,0.49438565601137713
2,7,1,0.8657830948301355,0.9,0.1342169051698645,0.09999999999999998,0.11710845258493224,1,0.4376337378301419,0.1915232884871814,1,562.0711850426039,1,0.6346373377044809,0.49438565601137713
2,8,1,0.7962123767688173,0.9,0.2037876232311827,0.09999999999999998,0.15189381161559135,5,0.4693908401747422,0.22032776083995037,0,562.5254009291115,0,0.6230997323537822,0.49438565601137713
2,9,1,0.7130712681597884,0.9,0.2869287318402116,0.09999999999999998,0.1934643659201058,5,0.6014573780077643,0.3617509775599747,0,567.3231280474644,0,0.6458162209117084,0.49438565601137713
2,10,1,0.8475711533813051,0.9,0.15242884661869494,0.09999999999999998,0.12621442330934746,1,0.5939965935675053,0.35283195316980015,1,522.9462074172255,1,0.6964056163766592,0.49438565601137713
2,11,1,0.7048801563113075,0.9,0.2951198436886925,0.09999999999999998,0.19755992184434623,2,0.541161095548651,0.2928553313354162,0,445.83511223737025,0,0.6183447149812562,0.49438565601137713
2,12,1,0.7140059411494941,0.9,0.2859940588505059,0.09999999999999998,0.19299702942525293,2,0.7061168433071059,0.49860099640199196,1,453.11583499035913,2,0.6884206803482223,0.49438565601137713
2,13,1,0.7959751240607817,0.9,0.20402487593921825,0.09999999999999998,0.15201243796960912,1,0.4131277520629255,0.17067453952456604,1,532.6836298731538,1,0.5991573786546635,0.49438565601137713
2,14,1,0.718339867022286,0.9,0.281660132977714,0.09999999999999998,0.19083006648885698,5,0.7412213051246002,0.5494090231706156,1,456.9838880765337,5,0.7044719638479292,0.49438565601137713
2,15,1,0.7220948226262789,0.9,0.2779051773737211,0.09999999999999998,0.18895258868686055,2,0.6614174835230557,0.4374730875099717,0,467.92761997202757,0,0.6737441745608824,0.49438565601137713
2,16,1,0.817821706894179,0.9,0.182178293105821,0.09999999999999998,0.1410891465529105,10,0.37760066177420176,0.14258225977231512,0,444.1968862061342,0,0.5916180800568774,0.49438565601137713
2,17,1,0.7436507775730128,0.9,0.2563492224269872,0.09999999999999998,0.1781746112134936,2,0.5152805671663753,0.26551406289930135,0,542.0171932494188,0,0.6226480206160722,0.49438565601137713
2,18,1,0.8964661030160164,0.9,0.10353389698398363,0.09999999999999998,0.1017669484919918,5,0.5563019555776362,0.3094718657795023,1,508.6408635981641,5,0.6989609273131903,0.49438565601137713
2,19,1,0.7334067892184151,0.9,0.26659321078158493,0.09999999999999998,0.18329660539079246,10,0.5664829570221556,0.3209029405965653,0,465.37001534247213,0,0.6396759742987318,0.49438565601137713
2,20,1,0.7461138391610038,0.9,0.2538861608389962,0.09999999999999998,0.17694308041949808,5,0.4228352934268341,0.17878968536735693,1,514.4975429868445,5,0.5855372168391548,0.49438565601137713
2,21,1,0.744097241814035,0.9,0.255902758185965,0.09999999999999998,0.17795137909298248,1,0.6316078566918181,0.3989284846348322,1,549.9337261862664,1,0.6706304942272818,0.49438565601137713
2,22,1,0.8036520733352784,0.9,0.19634792666472156,0.09999999999999998,0.14817396333236077,10,0.7147702325795577,0.5108964853818351,0,444.4378510542786,0,0.7303429655069453,0.49438565601137713
2,23,1,0.7307791812679709,0.9,0.2692208187320291,0.09999999999999998,0.18461040936601453,10,0.8052941046165553,0.6484985949301795,0,441.55678820837903,0,0.7360090104686202,0.49438565601137713
2,24,1,0.706973032046765,0.9,0.293026967953235,0.09999999999999998,0.1965134839766175,10,0.5006579827347316,0.2506584156760108,0,517.1231382913692,0,0.6028792271451034,0.49438565601137713
2,25,1,0.7531200085177412,0.9,0.2468799914822588,0.09999999999999998,0.1734399957411294,10,0.5185026119240062,0.2688449585720165,0,498.6342051333414,0,0.6275667626895063,0.49438565601137713
2,26,1,0.707084473683709,0.9,0.29291552631629103,0.09999999999999998,0.1964577631581455,5,0.6505096440736516,0.42316279703282894,1,594.396591478396,5,0.6631271056639977,0.49438565601137713
2,27,1,0.7816906426141397,0.9,0.21830935738586033,0.09999999999999998,0.15915467869293015,5,0.5799933783110819,0.3363923188847018,0,458.19745928307356,0,0.6642650199245123,0.49438565601137713
2,28,1,0.7218937720108908,0.9,0.2781062279891092,0.09999999999999998,0.1890531139945546,10,0.23474395776322216,0.05510472570634143,0,489.73037631486864,0,0.5006558837810621,0.49438565601137713
2,29,1,0.8649361931850299,0.9,0.1350638068149701,0.09999999999999998,0.11753190340748504,10,0.6196120547636614,0.38391909840844657,0,574.1427427552252,0,0.7146279835927901,0.49438565601137713
2,30,1,0.8467819837907403,0.9,0.15321801620925968,0.09999999999999998,0.12660900810462983,10,0.6264545885812443,0.392445351554496,0,530.77242260241,0,0.7102653931968745,0.49438565601137713
2,31,1,0.8734588401919605,0.9,0.12654115980803948,0.09999999999999998,0.11327057990401973,1,0.4472023151497817,0.19998991067532468,0,452.1352249133806,0,0.6416384348371631,0.49438565601137713
2,32,1,0.7211668187657168,0.9,0.27883318123428324,0.09999999999999998,0.1894165906171416,5,0.5179955569631138,0.26831939703352653,0,529.0535268593685,0,0.6152310069955959,0.49438565601137713
2,33,1,0.8743687055490464,0.9,0.12563129445095356,0.09999999999999998,0.11281564722547677,5,0.5097895731897377,0.25988540893297496,0,514.810289145508,0,0.6697308426580305,0.49438565601137713
2,34,1,0.7002240222960219,0.9,0.2997759777039781,0.09999999999999998,0.19988798885198905,2,0.5883776262898093,0.34618823111843045,1,565.0512271569806,2,0.6354400085166215,0.49438565601137713
2,35,1,0.7574076266349825,0.9,0.2425923733650175,0.09999999999999998,0.17129618668250873,2,0.6436889249362223,0.4143354320855496,1,392.39266424593217,2,0.6810656400011876,0.49438565601137713
2,36,1,0.7753390723973598,0.9,0.22466092760264023,0.09999999999999998,0.1623304638013201,10,0.7257325677178993,0.5266877598464152,1,486.8074035900316,10,0.7227967998016048,0.49438565601137713
2,37,1,0.8522055805004056,0.9,0.14779441949959438,0.09999999999999998,0.12389720974979718,2,0.6853575096292299,0.46971491600518,1,456.8157702657983,2,0.7382732083776506,0.49438565601137713
2,38,1,0.7358994646847666,0.9,0.26410053531523336,0.09999999999999998,0.18205026765761667,1,0.5364504257940607,0.287779059334629,1,510.67453736279424,1,0.6283696072677964,0.49438565601137713
2,39,1,0.8416344177290563,0.9,0.15836558227094366,0.09999999999999998,0.12918279113547182,2,0.5446262595278637,0.2966177625673119,1,576.6325133922036,2,0.6725435640304553,0.49438565601137713
2,40,1,0.7149388835515708,0.9,0.28506111644842924,0.09999999999999998,0.1925305582242146,2,0.620394666591399,0.38488954233505307,1,469.4294314424767,2,0.6542095884445085,0.49438565601137713
2,41,1,0.7044247103057995,0.9,0.29557528969420055,0.09999999999999998,0.19778764484710026,2,0.6986444311924302,0.4881040412361944,1,466.6234841560159,2,0.6813367748571185,0.49438565601137713
2,42,1,0.7002058959691266,0.9,0.29979410403087337,0.09999999999999998,0.19989705201543667,2,0.44070399430370644,0.19422001059524133,1,405.95841834325626,2,0.5763557565077656,0.49438565601137713
2,43,1,0.8589619097499859,0.9,0.14103809025001413,0.09999999999999998,0.12051904512500705,1,0.6492922822014607,0.4215804677263813,0,446.49131687146695,0,0.7252605756092485,0.49438565601137713
2,44,1,0.7460107366062868,0.9,0.2539892633937132,0.09999999999999998,0.17699463169685659,5,0.5576027924530496,0.31092087415143865,0,439.9901788270801,0,0.6409577299364133,0.49438565601137713
2,45,1,0.7839454633852244,0.9,0.21605453661477558,0.09999999999999998,0.15802726830738778,5,0.39047823065541143,0.15247324861578068,1,480.02688680116995,5,0.5853723771120235,0.49438565601137713
2,46,1,0.8448845345228234,0.9,0.15511546547717658,0.09999999999999998,0.12755773273858828,2,0.4424696810182358,0.19577941862037934,0,566.2085819234159,0,0.6292357594816975,0.49438565601137713
2,47,1,0.7946419813383114,0.9,0.20535801866168857,0.09999999999999998,0.15267900933084427,10,0.5319414109163784,0.2829616646477073,1,468.52089855837346,10,0.6490230569723849,0.49438565601137713
2,48,1,0.7307316076322226,0.9,0.26926839236777744,0.09999999999999998,0.1846341961838887,5,0.6277254184311017,0.3940392009445018,0,522.9934333695317,0,0.6635958220954957,0.49438565601137713
2,49,1,0.7262489755364775,0.9,0.2737510244635225,0.09999999999999998,0.18687551223176124,1,0.5661239785549683,0.32049635909490626,1,432.3865222631172,1,0.6367268789220324,0.49438565601137713
2,50,1,0.8196654530244853,0.9,0.18033454697551465,0.09999999999999998,0.14016727348775732,2,0.5031013812689933,0.2531109998347689,1,581.7870655649687,2,0.6462078794404184,0.49438565601137713
2,51,2,0.3983189093482874,0.9,0.6016810906517126,0.09999999999999998,0.3508405453258563,5,0.49017205388044466,0.24026864240537354,0,613.9641723026809,0,0.4836796389338391,0.49438565601137713
2,52,2,0.38664934979433113,0.9,0.6133506502056689,0.09999999999999998,0.35667532510283445,10,0.596569965060015,0.35589572321170754,1,546.0761487056245,10,0.5135564268614066,0.49438565601137713
2,53,2,0.37849871128133694,0.9,0.6215012887186631,0.09999999999999998,0.3607506443593315,2,0.7467827396188678,0.5576844601926616,0,570.6511487721026,0,0.5583148703728014,0.49438565601137713
2,54,2,0.48156373059692803,0.9,0.518436269403072,0.09999999999999998,0.309218134701536,5,0.5158311576222301,0.26608178317389,1,538.7967568411389,5,0.5235543372699071,0.49438565601137713
2,55,2,0.4973325186534293,0.9,0.5026674813465707,0.09999999999999998,0.30133374067328533,10,0.6091760953438858,0.3710955151384231,1,510.32338676829335,10,0.5621385215659407,0.49438565601137713
2,56,2,0.3692033135289679,0.9,0.6307966864710322,0.09999999999999998,0.36539834323551607,10,0.5387842497631972,0.29028846779289125,0,557.624089652732,0,0.48825751715140914,0.49438565601137713
2,57,2,0.3066406217582733,0.9,0.6933593782417267,0.09999999999999998,0.3966796891208633,10,0.49561145434686515,0.24563071367981482,0,514.0767856342568,0,0.4511663837954743,0.49438565601137713
2,58,2,0.3401718179724588,0.9,0.6598281820275411,0.09999999999999998,0.37991409101377055,2,0.5728864063262595,0.32819883455341614,1,585.3147257393132,2,0.48766234849945117,0.49438565601137713
2,59,2,0.32091356806688004,0.9,0.67908643193312,0.09999999999999998,0.38954321596656,5,0.8025541767861855,0.6440932066769518,0,605.7647971549633,0,0.5501907129034699,0.49438565601137713
2,60,2,0.35976717726746277,0.9,0.6402328227325372,0.09999999999999998,0.3701164113662686,10,0.6669087043029472,0.4447672198750359,0,578.4163069974502,0,0.5249792182955719,0.49438565601137713
2,61,2,0.3678900385085612,0.9,0.6321099614914387,0.09999999999999998,0.36605498074571935,5,0.8381540048354026,0.702502135821624,0,515.7383622594712,0,0.5826442879938561,0.49438565601137713
2,62,2,0.419495172526386,0.9,0.580504827473614,0.09999999999999998,0.340252413736807,2,0.8277263103975242,0.6851308449242985,0,484.84370217681123,0,0.6029190108172491,0.49438565601137713
2,63,2,0.44631790435106633,0.9,0.5536820956489337,0.09999999999999998,0.3268410478244668,5,0.6819131871636774,0.4650055948277246,0,608.2286457289428,0,0.5660974593606563,0.49438565601137713
2,64,2,0.3958557857152575,0.9,0.6041442142847425,0.09999999999999998,0.35207210714237125,5,0.5199643418870634,0.27036291683404695,0,527.1602860766941,0,0.4924136466288087,0.49438565601137713
2,65,2,0.4317415551001752,0.9,0.5682584448998248,0.09999999999999998,0.3341292224499124,5,0.4875645131468589,0.23771915448013353,0,611.4045630618721,0,0.49526286951250825,0.49438565601137713
2,66,2,0.39865536935675994,0.9,0.6013446306432401,0.09999999999999998,0.35067231532162,10,0.6841277453483302,0.4680307719553897,1,485.6492918017327,10,0.5467753847948258,0.49438565601137713
2,67,2,0.3061305004411612,0.9,0.6938694995588388,0.09999999999999998,0.3969347497794194,1,0.6005494173472238,0.36065960267609,0,576.6132170287892,0,0.4826178674314541,0.49438565601137713
2,68,2,0.38318147322938817,0.9,0.6168185267706119,0.09999999999999998,0.35840926338530593,10,0.4382553133163748,0.19206771965003383,0,518.6172103821758,0,0.46138564295532525,0.49438565601137713
2,69,2,0.4975299127472116,0.9,0.5024700872527884,0.09999999999999998,0.3012350436263942,10,0.705784755179781,0.49813212064418344,0,667.1026789031014,0,0.5959713050179807,0.49438565601137713
2,70,2,0.30587888915130146,0.9,0.6941211108486985,0.09999999999999998,0.39706055542434926,2,0.7421108716756187,0.5507285458591467,0,542.9816559847075,0,0.5251936806786501,0.49438565601137713
2,71,2,0.38434418537469106,0.9,0.6156558146253089,0.09999999999999998,0.35782790731265446,2,0.4968227125032989,0.2468328076591356,0,480.2271098178558,0,0.4806088868350962,0.49438565601137713
2,72,2,0.4671996127562419,0.9,0.5328003872437581,0.09999999999999998,0.31640019362187904,1,0.6544666759397217,0.42832662991558873,0,495.1928764385011,0,0.5654965496657236,0.49438565601137713
2,73,2,0.33593662177404837,0.9,0.6640633782259516,0.09999999999999998,0.3820316891129758,10,0.6535918513936978,0.42718230820824155,0,433.0163579701996,0,0.5109336816511553,0.49438565601137713
2,74,2,0.3138265572373239,0.9,0.6861734427626761,0.09999999999999998,0.39308672138133804,1,0.6876205005168151,0.4728219527309953,0,530.6332497584145,0,0.5121196455163638,0.49438565601137713
2,75,2,0.402963470785938,0.9,0.597036529214062,0.09999999999999998,0.348518264607031,1,0.5536697235086472,0.3065501627301418,0,562.9647509046712,0,0.5060937238494638,0.49438565601137713
2,76,2,0.3624296113392894,0.9,0.6375703886607106,0.09999999999999998,0.3687851943303553,10,0.7079826343418911,0.5012394105296839,0,477.5489919099325,0,0.5390519633116223,0.49438565601137713
2,77,2,0.4546946251373201,0.9,0.5453053748626799,0.09999999999999998,0.32265268743133996,10,0.475221234159095,0.2258352213956934,1,521.6422830681823,10,0.4996185692009425,0.49438565601137713
2,78,2,0.47674193393215053,0.9,0.5232580660678494,0.09999999999999998,0.3116290330339247,2,0.6208069178179944,0.385401229210678,1,467.2584069189494,2,0.5578582126418385,0.49438565601137713
2,79,2,0.4657766731765219,0.9,0.5342233268234782,0.09999999999999998,0.3171116634117391,1,0.8334550244008893,0.6946472776990869,0,448.79199826477503,0,0.6260225259112563,0.49438565601137713
2,80,2,0.35050555641508385,0.9,0.6494944435849161,0.09999999999999998,0.37474722179245806,2,0.713434993288291,0.5089894896482637,0,602.2057129532523,0,0.5356649949157625,0.49438565601137713
2,81,2,0.46883408979383945,0.9,0.5311659102061606,0.09999999999999998,0.31558295510308026,10,0.7235804810539488,0.5235687125622639,0,514.2564149970358,0,0.5898239297424775,0.49438565601137713
2,82,2,0.4079811679004425,0.9,0.5920188320995575,0.09999999999999998,0.34600941604977875,10,0.6144631868761701,0.3775650080260191,0,540.4953943018245,0,0.5279218611756408,0.49438565601137713
2,83,2,0.4873211384589923,0.9,0.5126788615410077,0.09999999999999998,0.30633943077050385,1,0.48808301242474383,0.23822502701761264,1,574.555976583356,1,0.5161122547296456,0.49438565601137713
2,84,2,0.31771111684464826,0.9,0.6822888831553517,0.09999999999999998,0.39114444157767586,1,0.5739040137992467,0.329365817054886,1,560.4175187199237,1,0.47914010361243886,0.49438565601137713
2,85,2,0.4973260245917694,0.9,0.5026739754082306,0.09999999999999998,0.30133698770411527,10,0.4561341595602837,0.20805837151776635,0,569.9591344853002,0,0.5086735391126622,0.49438565601137713
2,86,2,0.36853069762418306,0.9,0.6314693023758169,0.09999999999999998,0.36573465118790843,2,0.7373175311481995,0.5436371417384762,1,483.9933458852761,2,0.5509601549455373,0.49438565601137713
2,87,2,0.43468648666498344,0.9,0.5653135133350166,0.09999999999999998,0.33265675666750827,2,0.6783220519759601,0.46012080619687706,1,491.4611675921819,2,0.56000844076104,0.49438565601137713
2,88,2,0.34691225866696573,0.9,0.6530877413330343,0.09999999999999998,0.3765438706665171,5,0.6838928048115998,0.46770936847307687,0,498.7158904589934,0,0.5249166451501709,0.49438565601137713
2,89,2,0.48892284389480467,0.9,0.5110771561051953,0.09999999999999998,0.30553857805259765,2,0.6299963253835974,0.39689536999683556,0,537.0004218572456,0,0.5659847829474669,0.49438565601137713
2,90,2,0.3226219638153146,0.9,0.6773780361846854,0.09999999999999998,0.3886890180923427,1,0.7427259976404336,0.5516419075709773,1,601.6856209416785,1,0.5326737704067875,0.49438565601137713
2,91,2,0.4317770940465314,0.9,0.5682229059534686,0.09999999999999998,0.3341114529767343,1,0.7026007084496746,0.49364775551398465,1,620.7419992893981,1,0.5668711559551683,0.49438565601137713
2,92,2,0.331857489048561,0.9,0.668142510951439,0.09999999999999998,0.38407125547571946,10,0.731546183872175,0.535159819137942,0,529.4477560822759,0,0.5332545335590989,0.49438565601137713
2,93,2,0.41340325219733354,0.9,0.5865967478026665,0.09999999999999998,0.3432983739013332,1,0.651193047065882,0.424052384546948,0,498.6025503382091,0,0.5421705795054885,0.49438565601137713
2,94,2,0.4851349661761424,0.9,0.5148650338238576,0.09999999999999998,0.3074325169119288,5,0.6718273870089869,0.4513520379353231,0,560.1056534882249,0,0.5789266427892605,0.49438565601137713
2,95,2,0.3871166629625866,0.9,0.6128833370374134,0.09999999999999998,0.3564416685187067,5,0.4772941347442192,0.2278096910612329,0,514.2450057310882,0,0.4753624742315454,0.49438565601137713
2,96,2,0.3656762455770162,0.9,0.6343237544229838,0.09999999999999998,0.3671618772114919,1,0.4990497911677832,0.24905069406460803,0,478.0565482672663,0,0.47432792790456246,0.49438565601137713
2,97,2,0.3777116202540691,0.9,0.6222883797459309,0.09999999999999998,0.3611441898729654,1,0.7317210922987583,0.5354157569148879,0,647.4775960288144,0,0.5531600406672982,0.49438565601137713
2,98,2,0.30293341140925273,0.9,0.6970665885907472,0.09999999999999998,0.3985332942953736,5,0.7988083548325684,0.6380947877503145,0,590.1700072724869,0,0.5409616676875517,0.49438565601137713
2,99,2,0.3926988087601145,0.9,0.6073011912398856,0.09999999999999998,0.3536505956199428,5,0.6857518446571534,0.4702555924506887,0,540.4400678254009,0,0.5447923503633669,0.49438565601137713
2,100,2,0.482847303190294,0.9,0.517152696809706,0.09999999999999998,0.308576348404853,1,0.4966957044603042,0.24670662282931785,0,466.26354146230824,0,0.5174254046523573,0.49438565601137713
2,101,3,0.8160344738454665,0.4,0.18396552615453354,0.6,0.39198276307726676,10,0.39134241796093916,0.15314888809551438,1,551.8053908838605,10,0.4229800862910024,0.49438565601137713
2,102,3,0.8493751432271646,0.4,0.15062485677283544,0.6,0.3753124283864177,10,0.7047596662848323,0.4966861872219082,1,556.1773330859108,10,0.5324710880581264,0.49438565601137713
2,103,3,0.8854069089592613,0.4,0.11459309104073867,0.6,0.3572965455203693,5,0.6147248273099707,0.37788661331127327,1,475.240915051454,5,0.5188946122730715,0.49438565601137713
2,104,3,0.7332663215486284,0.4,0.26673367845137164,0.6,0.4333668392256858,10,0.5561601796735429,0.3093141454545075,1,525.1804150357262,10,0.4408859806397722,0.49438565601137713
2,105,3,0.8606051795665327,0.4,0.1393948204334673,0.6,0.36969741021673364,5,0.5445860069988961,0.29657391901900176,0,564.6244963235031,0,0.4867782801771993,0.49438565601137713
2,106,3,0.7799810413608312,0.4,0.22001895863916876,0.6,0.41000947931958437,1,0.5391949300959518,0.2907311726411783,1,557.8516932864288,1,0.4540552091179833,0.49438565601137713
2,107,3,0.8362235707929966,0.4,0.16377642920700342,0.6,0.3818882146035017,2,0.5764600761837688,0.33230621943379657,1,582.5974921708494,2,0.48721427614812457,0.49438565601137713
2,108,3,0.8586814516295674,0.4,0.14131854837043256,0.6,0.37065927418521627,1,0.7674580512660515,0.5889918604530853,1,530.6947687884589,1,0.55616666641548,0.49438565601137713
2,109,3,0.7086825065709638,0.4,0.29131749342903623,0.6,0.4456587467145181,2,0.6710056923571884,0.4502486391757498,0,679.1197931694501,0,0.46315369487422914,0.49438565601137713
2,110,3,0.8587487700761033,0.4,0.14125122992389672,0.6,0.37062561496194835,5,0.48744773346145687,0.2376052928567115,0,649.9217483017858,0,0.46808075126177406,0.49438565601137713
2,111,3,0.8800046246796023,0.4,0.11999537532039772,0.6,0.35999768766019885,10,0.46326003376455177,0.21460985888353365,1,580.4268986557433,10,0.4682449025818643,0.49438565601137713
2,112,3,0.8463916135171269,0.4,0.15360838648287312,0.6,0.37680419324143655,10,0.8111928655492531,0.6580338651180085,1,490.5122723542174,10,0.5643638995206606,0.49438565601137713
2,113,3,0.8247718649353146,0.4,0.17522813506468538,0.6,0.3876140675323427,1,0.5176950299461252,0.26800814403091944,1,551.9987816784407,1,0.4647075430575434,0.49438565601137713
2,114,3,0.8738519249302106,0.4,0.12614807506978942,0.6,0.3630740375348947,1,0.607312798973558,0.36882883579709735,1,541.6998963764414,1,0.5118696257343579,0.49438565601137713
2,115,3,0.8283943000886532,0.4,0.17160569991134678,0.6,0.3858028499556734,10,0.6873340395420162,0.4724280819131459,1,487.51019836421546,10,0.5181778791297438,0.49438565601137713
2,116,3,0.8264030972040837,0.4,0.17359690279591633,0.6,0.38679845139795815,1,0.6631444192224016,0.4397605207458164,1,549.6209036261381,1,0.5099213667080101,0.49438565601137713
2,117,3,0.8390289108095188,0.4,0.1609710891904812,0.6,0.3804855445952406,5,0.4433255245359023,0.19653752070503291,0,471.10623850818763,0,0.44708051315232405,0.49438565601137713
2,118,3,0.7031642183531165,0.4,0.2968357816468835,0.6,0.44841789082344174,10,0.703836261227155,0.49538548261822,1,645.561572280744,10,0.4699027993295877,0.49438565601137713
2,119,3,0.7158838737977973,0.4,0.2841161262022027,0.6,0.44205806310110135,10,0.7584361803697632,0.5752254396938761,1,642.5588926130735,10,0.49055264419430344,0.49438565601137713
2,120,3,0.7733912158409602,0.4,0.22660878415903984,0.6,0.4133043920795199,2,0.5796017402966713,0.33593817735493003,1,556.1543823093405,2,0.463372701647802,0.49438565601137713
2,121,3,0.7135225127184429,0.4,0.2864774872815571,0.6,0.44323874364077853,1,0.66527445982776,0.4425901068991179,1,536.3498165493959,1,0.4635801502183138,0.49438565601137713
2,122,3,0.8185623983306846,0.4,0.18143760166931544,0.6,0.3907188008346577,5,0.43330158782379957,0.1877502660106259,1,592.5883099603959,5,0.43664185509743686,0.49438565601137713
2,123,3,0.833897391039638,0.4,0.166102608960362,0.6,0.383051304480181,5,0.4808210563530655,0.23118888823247777,0,500.3511205967824,0,0.45679530950765207,0.49438565601137713
2,124,3,0.7892704702395285,0.4,0.21072952976047155,0.6,0.40536476488023576,10,0.6459389012315904,0.41723706412427425,0,522.9711752389575,0,0.48936663276330655,0.49438565601137713
2,125,3,0.7350605884715319,0.4,0.2649394115284681,0.6,0.43246970576423405,5,0.5753970490448441,0.3310817640495147,1,598.3401043480804,5,0.4470427753912889,0.49438565601137713
2,126,3,0.7845378226792379,0.4,0.21546217732076212,0.6,0.40773108866038105,5,0.5633274733604559,0.3173378422426751,0,627.7912380225906,0,0.4629551303572571,0.49438565601137713
2,127,3,0.8590899921579458,0.4,0.1409100078420542,0.6,0.3704550039210271,10,0.5363461962375707,0.28766724221851075,0,543.3928526012886,0,0.4835995300431632,0.49438565601137713
2,128,3,0.7040052711851649,0.4,0.29599472881483513,0.6,0.44799736440741755,10,0.6541336777919351,0.4278908684216032,0,607.9897505288609,0,0.45654307488179985,0.49438565601137713
2,129,3,0.8041915954544084,0.4,0.19580840454559156,0.6,0.39790420227279577,2,0.7157809894411024,0.5123424248452835,0,513.4772079552727,0,0.5165322617813561,0.49438565601137713
2,130,3,0.8216972825319583,0.4,0.17830271746804172,0.6,0.38915135873402085,10,0.7030985593042126,0.4943475840956594,1,594.2706675295142,10,0.5201677204465124,0.49438565601137713
2,131,3,0.7606256711890657,0.4,0.23937432881093434,0.6,0.41968716440546716,2,0.524160956761105,0.27474470859271694,1,496.59768734908613,2,0.4422450833602565,0.49438565601137713
2,132,3,0.747811066439453,0.4,0.25218893356054695,0.6,0.42609446678027346,1,0.5566098930547033,0.3098145730463683,1,492.116385843524,1,0.4466735153443305,0.49438565601137713
2,133,3,0.8201188666721234,0.4,0.17988113332787659,0.6,0.3899405666639383,5,0.677383874517328,0.4588489134561071,1,522.7184014005408,5,0.5116519279875443,0.49438565601137713
2,134,3,0.8133150724342837,0.4,0.1866849275657163,0.6,0.39334246378285814,10,0.6415066385996011,0.4115307673673592,1,548.9075926153401,10,0.4979161865284581,0.49438565601137713
2,135,3,0.8755948640890139,0.4,0.12440513591098612,0.6,0.36220256795549305,2,0.5553198540313613,0.3083801402814124,1,574.8271561067642,2,0.49598950445451984,0.49438565601137713
2,136,3,0.863747000814854,0.4,0.136252999185146,0.6,0.368126499592573,5,0.5082992163815513,0.2583680933740991,0,541.9572254033386,0,0.47652715275839497,0.49438565601137713
2,137,3,0.7692199453075571,0.4,0.2307800546924429,0.6,0.41539002734622144,10,0.7100008512832954,0.5041012088230041,1,559.6282047472477,10,0.4998417754533327,0.49438565601137713
2,138,3,0.7958708880275703,0.4,0.20412911197242967,0.6,0.4020645559862148,1,0.6329770455082043,0.4006599401402954,1,598.2099772050584,1,0.48820742738513356,0.49438565601137713
2,139,3,0.8529619601805991,0.4,0.1470380398194009,0.6,0.37351901990970043,1,0.657115232460259,0.4318004287313003,0,540.5630769790115,0,0.5190755874771338,0.49438565601137713
2,140,3,0.8332613771670079,0.4,0.16673862283299212,0.6,0.38336931141649605,2,0.681634178038422,0.4646251526701151,1,549.5467965433962,2,0.5184736205746935,0.49438565601137713
2,141,3,0.7623632266170519,0.4,0.23763677338294809,0.6,0.41881838669147403,2,0.6022384287697371,0.3626911250870417,0,597.052738119682,0,0.4655957574686567,0.49438565601137713
2,142,3,0.7000665012240979,0.4,0.29993349877590214,0.6,0.44996674938795106,5,0.8003959032717392,0.6406336019741832,1,615.8885270740773,5,0.4951388055325853,0.49438565601137713
2,143,3,0.7122699254221336,0.4,0.28773007457786637,0.6,0.4438650372889332,5,0.5895524924025674,0.34757214129807923,1,544.1250778757094,5,0.44200285804479256,0.49438565601137713
2,144,3,0.8508507088687727,0.4,0.14914929113122732,0.6,0.37457464556561365,5,0.572319529941593,0.32754964435256595,1,534.5938828605656,5,0.49168424964891433,0.49438565601137713
2,145,3,0.760655029513519,0.4,0.23934497048648096,0.6,0.41967248524324047,5,0.6946852810645644,0.4825876397277528,1,510.3115831659417,5,0.4917362487275295,0.49438565601137713
2,146,3,0.8266379252026927,0.4,0.17336207479730725,0.6,0.3866810373986536,10,0.6753708628930164,0.45612580244485756,1,607.9995386696114,10,0.5137683598010337,0.49438565601137713
2,147,3,0.8247791672583277,0.4,0.17522083274167233,0.6,0.38761041637083615,10,0.6789670418123087,0.4609962438673574,0,584.8920885555067,0,0.5140909638312644,0.49438565601137713
2,148,3,0.78095968581704,0.4,0.21904031418296,0.6,0.40952015709148,10,0.5866119230911507,0.34411354831269814,1,505.64276210953614,10,0.4684311795518238,0.49438565601137713
2,149,3,0.8655075791133748,0.4,0.13449242088662516,0.6,0.36724621044331257,1,0.668693557356943,0.44715107365068324,1,538.2137202958211,1,0.5279360860132176,0.49438565601137713
2,150,3,0.7267607472558977,0.4,0.2732392527441023,0.6,0.43661962637205115,1,0.589397062128081,0.3473888968452129,1,591.6363819689345,1,0.4477175553524412,0.49438565601137713
2,151,4,0.3430403744034475,0.4,0.6569596255965525,0.6,0.6284798127982762,1,0.733071605710486,0.5373939790989503,1,669.0459493349503,1,0.32193554369377586,0.49438565601137713
2,152,4,0.3129233359688172,0.4,0.6870766640311827,0.6,0.6435383320155914,10,0.5957597036644133,0.35492962451030957,0,631.9385793804549,0,0.2844135828352612,0.49438565601137713
2,153,4,0.39087546691199215,0.4,0.6091245330880078,0.6,0.6045622665440039,10,0.6168441475409272,0.38049670235549315,1,596.7734392440798,10,0.3196805925275882,0.49438565601137713
2,154,4,0.47293207842808355,0.4,0.5270679215719165,0.6,0.5635339607859582,10,0.6580992141992202,0.43309457572963117,1,688.8356908229825,10,0.36185199832272436,0.49438565601137713
2,155,4,0.37889525571400706,0.4,0.6211047442859929,0.6,0.6105523721429964,2,0.7364760090953535,0.5423969119730192,1,603.6852502417499,2,0.338133231286391,0.49438565601137713
2,156,4,0.3204299059315076,0.4,0.6795700940684923,0.6,0.6397850470342461,10,0.8084751872936177,0.6536321284694502,0,555.0468771048927,0,0.3257199022653517,0.49438565601137713
2,157,4,0.35093412440921024,0.4,0.6490658755907898,0.6,0.6245329377953949,2,0.6817085040423314,0.4647264844836334,0,626.8249258953767,0,0.3157130757486377,0.49438565601137713
2,158,4,0.46502643918574077,0.4,0.5349735608142592,0.6,0.5674867804071295,5,0.750580466053247,0.5633710360207095,0,610.1526165371389,0,0.37857459676453875,0.49438565601137713
2,159,4,0.42278671695201236,0.4,0.5772132830479877,0.6,0.5886066415239939,10,0.7826778310860654,0.6125845872735874,1,591.7884553537419,10,0.3666909100056094,0.49438565601137713
2,160,4,0.49765505420002626,0.4,0.5023449457999738,0.6,0.5511724728999869,5,0.6494398628936466,0.42177213551531856,1,604.9098974632957,5,0.37015700738137003,0.49438565601137713
2,161,4,0.4432646776125364,0.4,0.5567353223874636,0.6,0.5783676611937318,1,0.6667592122094582,0.44456784706617736,1,611.5433492211941,1,0.3513797924353835,0.49438565601137713
2,162,4,0.4017158578895157,0.4,0.5982841421104843,0.6,0.5991420710552422,10,0.5494832607159956,0.3019318538070828,0,576.2135933194405,0,0.3105613254125921,0.49438565601137713
2,163,4,0.4549307062362364,0.4,0.5450692937637636,0.6,0.5725346468818817,5,0.6165297360847465,0.38010891547672715,0,669.834014181412,0,0.3455052272307023,0.49438565601137713
2,164,4,0.4099232087437849,0.4,0.590076791256215,0.6,0.5950383956281076,2,0.6050102384737175,0.3660373886580245,1,661.9901242403788,2,0.32498376060281514,0.49438565601137713
2,165,4,0.31643433349528544,0.4,0.6835656665047145,0.6,0.6417828332523572,10,0.7121382359268486,0.5071408670690039,1,633.60772552909,10,0.3066586539770115,0.49438565601137713
2,166,4,0.4951981699197585,0.4,0.5048018300802415,0.6,0.5524009150401208,5,0.6403738272451187,0.41007863862056115,0,589.141240964772,0,0.36711491203352503,0.49438565601137713
2,167,4,0.4549267561275576,0.4,0.5450732438724424,0.6,0.5725366219362211,1,0.6749033701204653,0.4554945589999618,0,632.9860716107439,0,0.3579799262610509,0.49438565601137713
2,168,4,0.36444310068892566,0.4,0.6355568993110743,0.6,0.6177784496555372,10,0.8343645378070685,0.6961641819500031,0,691.8606598669043,0,0.35056682876876083,0.49438565601137713
2,169,4,0.4623539576180275,0.4,0.5376460423819724,0.6,0.5688230211909862,10,0.6996966827747956,0.4895754478860529,1,555.262131531526,10,0.36643504028526963,0.49438565601137713
2,170,4,0.3751985779882623,0.4,0.6248014220117377,0.6,0.6124007110058689,2,0.8930940433679022,0.7976169702992284,0,539.2503906788863,0,0.36688095260421183,0.49438565601137713
2,171,4,0.348138542366501,0.4,0.651861457633499,0.6,0.6259307288167495,1,0.686229775541417,0.4709113048396235,1,721.3054673584461,1,0.3153833715921369,0.49438565601137713
2,172,4,0.49848308009789405,0.4,0.5015169199021059,0.6,0.5507584599510529,2,0.7026484250779743,0.4937148092645577,0,608.2576194682108,0,0.38245020032197174,0.49438565601137713
2,173,4,0.48378530672791087,0.4,0.5162146932720891,0.6,0.5581073466360446,2,0.5499205002505749,0.3024125565958426,0,642.717142869776,0,0.34244924117945785,0.49438565601137713
2,174,4,0.44963838119579946,0.4,0.5503616188042005,0.6,0.5751808094021003,2,0.7445609645050821,0.5543710298647382,1,656.7718392443882,2,0.37056148844487014,0.49438565601137713
2,175,4,0.40900538377938767,0.4,0.5909946162206123,0.6,0.5954973081103061,5,0.7127474046545818,0.5080088628418421,0,521.4996652605956,0,0.34640546785493254,0.49438565601137713
2,176,4,0.32158874292929285,0.4,0.6784112570707072,0.6,0.6392056285353536,1,0.775368256306842,0.6011959328883126,1,643.1203886194974,1,0.3202714370762562,0.49438565601137713
2,177,4,0.4011705385903658,0.4,0.5988294614096342,0.6,0.5994147307048171,10,0.5868883243830192,0.34443790529710794,0,532.5050803573522,0,0.31784204338217664,0.49438565601137713
2,178,4,0.44868475721532186,0.4,0.5513152427846781,0.6,0.575657621392339,5,0.7349416667057894,0.5401392534602837,0,511.1649817893319,0,0.36810463679773725,0.49438565601137713
2,179,4,0.47466458317216154,0.4,0.5253354168278385,0.6,0.5626677084139192,5,0.6573186913632172,0.4320678620154524,1,653.9454892181917,5,0.36239949059116017,0.49438565601137713
2,180,4,0.4116084650297934,0.4,0.5883915349702066,0.6,0.5941957674851033,10,0.7658186504707987,0.5864782054089153,0,555.341210073842,0,0.35828834110739655,0.49438565601137713
2,181,4,0.3198356199174432,0.4,0.6801643800825568,0.6,0.6400821900412783,10,0.7282025091651871,0.5302788943544745,0,660.0479950968852,0,0.3110054311319509,0.49438565601137713
2,182,4,0.4484696101145018,0.4,0.5515303898854982,0.6,0.5757651949427491,2,0.558828987349261,0.3122898371018005,0,639.0767931589056,0,0.3306547557828528,0.49438565601137713
2,183,4,0.45675835689707944,0.4,0.5432416431029206,0.6,0.5716208215514602,10,0.7970823293541169,0.6353402397685849,0,595.9320392441289,0,0.3849163259265524,0.49438565601137713
2,184,4,0.46653609386940864,0.4,0.5334639061305914,0.6,0.5667319530652957,2,0.5311986843989418,0.2821720423071666,1,561.5843084182775,2,0.3317097317292591,0.49438565601137713
2,185,4,0.361120843098043,0.4,0.638879156901957,0.6,0.6194395784509785,10,0.5820878729543111,0.3388262918404742,0,627.9157030761313,0,0.30104001392954366,0.49438565601137713
2,186,4,0.42867303598235684,0.4,0.5713269640176432,0.6,0.5856634820088216,2,0.7033325517002427,0.4946766782811745,0,651.9953310262767,0,0.3528764392262537,0.49438565601137713
2,187,4,0.38252436816972474,0.4,0.6174756318302752,0.6,0.6087378159151375,10,0.6471697526474617,0.41882868874177676,0,597.3130617938491,0,0.3222376174896842,0.49438565601137713
2,188,4,0.38046542493731117,0.4,0.6195345750626888,0.6,0.6097672875313445,5,0.9082475193240933,0.8249135563583693,1,577.3045729604992,5,0.37233030276371204,0.49438565601137713
2,189,4,0.41599675748562626,0.4,0.5840032425143737,0.6,0.5920016212571868,5,0.6580108381709086,0.4329782631503816,0,617.3404573167553,0,0.3382328669558718,0.49438565601137713
2,190,4,0.41987379313258677,0.4,0.5801262068674132,0.6,0.5900631034337066,5,0.7597877416038896,0.577277412291539,0,573.4808710532963,0,0.3607009627042524,0.49438565601137713
2,191,4,0.3154116558268662,0.4,0.6845883441731337,0.6,0.6422941720865669,2,0.8016227096385348,0.6425989686082266,0,654.9424556809331,0,0.32222547146944736,0.49438565601137713
2,192,4,0.3419683989712819,0.4,0.6580316010287182,0.6,0.6290158005143591,10,0.4142241750456965,0.1715816671922878,1,687.3291546312112,10,0.26232741173628427,0.49438565601137713
2,193,4,0.3656385507218623,0.4,0.6343614492781378,0.6,0.6171807246390688,5,0.6248205294474661,0.3904006940190119,1,557.1035281925913,5,0.3110063088373217,0.49438565601137713
2,194,4,0.4602733831639038,0.4,0.5397266168360961,0.6,0.569863308418048,5,0.5745397070992495,0.3300958750336914,0,706.2096501321988,0,0.3386336501880435,0.49438565601137713
2,195,4,0.4571303236160464,0.4,0.5428696763839536,0.6,0.5714348381919767,5,0.7623562593529635,0.5811870661746429,0,638.9806186423457,0,0.37764224772649274,0.49438565601137713
2,196,4,0.3405872735149804,0.4,0.6594127264850196,0.6,0.6297063632425097,10,0.5506687136819406,0.30323603222812306,1,575.121511266223,10,0.2871013786976726,0.49438565601137713
2,197,4,0.30483835277827104,0.4,0.695161647221729,0.6,0.6475808236108644,2,0.864148770406653,0.7467530973953304,0,644.604045216311,0,0.3284808871667662,0.49438565601137713
2,198,4,0.4565163879702676,0.4,0.5434836120297324,0.6,0.5717418060148662,5,0.6308190904787051,0.39793272491238074,0,528.7054793932496,0,0.34920581920244437,0.49438565601137713
2,199,4,0.46838671335836174,0.4,0.5316132866416383,0.6,0.5658066433208191,1,0.4045448809654053,0.16365656071531395,0,589.3125882415308,0,0.30492202823646497,0.49438565601137713
2,200,4,0.4412038015328049,0.4,0.5587961984671951,0.6,0.5793980992335975,2,0.6998839589343767,0.4898375559736563,0,584.9083312843187,0,0.357487212105058,0.49438565601137713
3,1,1,0.7270708164555371,0.9,0.27292918354446294,0.09999999999999998,0.18646459177223146,5,0.6141984774010842,0.37723976964181016,1,535.1673854098434,5,0.6566038086365668,0.8096214706451432
3,2,1,0.7565491379157524,0.9,0.2434508620842476,0.09999999999999998,0.1717254310421238,2,0.515968830676467,0.2662238342296407,1,455.2979542771453,2,0.6278192148910632,0.8096214706451432
3,3,1,0.8812509161042074,0.9,0.11874908389579264,0.09999999999999998,0.10937454194789631,10,0.5817131967873507,0.338390243316559,1,486.9049347945553,10,0.7043570201978957,0.8096214706451432
3,4,1,0.8689578872572044,0.9,0.13104211274279565,0.09999999999999998,0.11552105637139781,2,0.5887174941311586,0.34658828789607077,1,438.42398354091233,2,0.7025935854667036,0.8096214706451432
3,5,1,0.7125306406910709,0.9,0.28746935930892914,0.09999999999999998,0.19373467965446456,2,0.4277272741931159,0.18295062108867297,1,554.5336155677561,2,0.5755634940466854,0.8096214706451432
3,6,1,0.8543715452363243,0.9,0.1456284547636757,0.09999999999999998,0.12281422738183784,2,0.618514315266202,0.3825599581892188,1,479.35938958370156,2,0.7098688650651697,0.8096214706451432
3,7,1,0.8873644924066184,0.9,0.11263550759338159,0.09999999999999998,0.10631775379669078,2,0.6358646082023774,0.40432379996436296,1,496.07783270043046,2,0.7309715787713985,0.8096214706451432
3,8,1,0.7988962262590186,0.9,0.20110377374098143,0.09999999999999998,0.1505518868704907,1,0.6844615477814833,0.4684876103914237,1,414.0049401245364,1,0.7154313417010969,0.8096214706451432
3,9,1,0.8130660509143219,0.9,0.18693394908567806,0.09999999999999998,0.14346697454283902,5,0.6328734829072722,0.40052884536718136,0,473.18259877101264,0,0.6993050322516688,0.8096214706451432
3,10,1,0.7366030888469454,0.9,0.26339691115305464,0.09999999999999998,0.1816984555765273,1,0.5749678335117308,0.33058800957317336,1,469.92100393835307,1,0.64439930528997,0.8096214706451432
3,11,1,0.8701232115682276,0.9,0.12987678843177242,0.09999999999999998,0.1149383942158862,5,0.6280619882658424,0.3944618611044431,1,473.43271350940705,5,0.7204675788253218,0.8096214706451432
3,12,1,0.7807955752653096,0.9,0.21920442473469037,0.09999999999999998,0.15960221236734518,5,0.6263429042663132,0.39230543372476,1,466.8949813294061,5,0.683387489338738,0.8096214706451432
3,13,1,0.7163450691493556,0.9,0.2836549308506444,0.09999999999999998,0.1918274654253222,2,0.5980796585718418,0.3576992779974108,1,555.2548003162206,2,0.6457620440601205,0.8096214706451432
3,14,1,0.8328375829010835,0.9,0.16716241709891655,0.09999999999999998,0.13358120854945826,1,0.5533271451438523,0.30617092955304576,1,585.2421125154523,1,0.6729159139114284,0.8096214706451432
3,15,1,0.8301946934301908,0.9,0.1698053065698092,0.09999999999999998,0.13490265328490458,2,0.6931491993034045,0.48045581249495073,1,436.69442254428805,2,0.7323694399550817,0.8096214706451432
3,16,1,0.7711946747589705,0.9,0.22880532524102948,0.09999999999999998,0.16440266262051473,5,0.5460456046230022,0.2981658023281001,1,454.75663799134156,5,0.6459357953451186,0.8096214706451432
3,17,1,0.7660430129742994,0.9,0.23395698702570056,0.09999999999999998,0.16697849351285027,2,0.6474471724654381,0.41918784113349083,1,443.4828768407417,2,0.6861794627325772,0.8096214706451432
3,18,1,0.7510986689311209,0.9,0.24890133106887913,0.09999999999999998,0.17445066553443955,1,0.646456755456674,0.41790633667557003,0,486.0935993824964,0,0.6796156393467916,0.8096214706451432
3,19,1,0.7054334842451119,0.9,0.2945665157548881,0.09999999999999998,0.19728325787744405,1,0.5971056134500926,0.3565351136136114,1,464.6274287641954,1,0.6410117074271522,0.8096214706451432
3,20,1,0.7781456731227226,0.9,0.22185432687727735,0.09999999999999998,0.16092716343863867,5,0.6391103939925961,0.40846209570937136,0,446.7775571275728,0,0.687666503862289,0.8096214706451432
3,21,1,0.7760840015015125,0.9,0.22391599849848753,0.09999999999999998,0.16195799924924376,5,0.4739121005798942,0.22459267907604774,1,488.0570202676602,5,0.6176001228503621,0.8096214706451432
3,22,1,0.7188072208868532,0.9,0.2811927791131468,0.09999999999999998,0.19059638955657338,10,0.6575026058999288,0.4323096767651971,0,559.849754000613,0,0.6707942967673952,0.8096214706451432
3,23,1,0.8595828319231789,0.9,0.14041716807682114,0.09999999999999998,0.12020858403841056,5,0.31679204516044224,0.10035719987693567,1,557.5521131740254,5,0.5792511689693313,0.8096214706451432
3,24,1,0.7332068626832391,0.9,0.2667931373167609,0.09999999999999998,0.18339656865838044,10,0.5848534263946379,0.34205353036554814,1,476.3512047959505,10,0.647098373083692,0.8096214706451432
3,25,1,0.8787979420015741,0.9,0.12120205799842587,0.09999999999999998,0.11060102899921292,10,0.5337933865146297,0.28493537948675685,0,527.015452157415,0,0.6820771298469621,0.8096214706451432
3,26,1,0.8935511754206777,0.9,0.10644882457932225,0.09999999999999998,0.10322441228966112,5,0.605028506419871,0.3660594935806599,1,482.52637992767865,5,0.7196751910682637,0.8096214706451432
3,27,1,0.8934253230518341,0.9,0.10657467694816591,0.09999999999999998,0.10328733847408295,5,0.480130318421256,0.23052512266729666,0,480.9223986499261,0,0.6636257986183638,0.8096214706451432
3,28,1,0.7646022396772427,0.9,0.23539776032275728,0.09999999999999998,0.16769888016137863,10,0.5932619402815011,0.3519597297865714,1,540.2699698042566,10,0.6630368485462741,0.8096214706451432
3,29,1,0.7025215039951518,0.9,0.2974784960048482,0.09999999999999998,0.1987392480024241,1,0.5743315405024848,0.3298567184159573,1,530.1231686521425,1,0.6307250370182615,0.8096214706451432
3,30,1,0.8946914779952346,0.9,0.10530852200476537,0.09999999999999998,0.10265426100238267,10,0.6127430605560454,0.37545405825958955,1,484.7316182227813,10,0.7235940567439719,0.8096214706451432
3,31,1,0.8420485597246623,0.9,0.1579514402753377,0.09999999999999998,0.12897572013766884,10,0.4635071645218992,0.21483889156313096,1,546.5009294419235,10,0.6373751370255246,0.8096214706451432
3,32,1,0.8638510209742922,0.9,0.13614897902570777,0.09999999999999998,0.11807448951285388,10,0.49195765748410103,0.24202233675724408,0,460.9878350440352,0,0.6578977593509363,0.8096214706451432
3,33,1,0.8651956425416164,0.9,0.1348043574583836,0.09999999999999998,0.11740217872919179,2,0.5317789410678707,0.28278884216326594,0,564.0950909984184,0,0.6759723780275042,0.8096214706451432
3,34,1,0.8479342601453528,0.9,0.15206573985464722,0.09999999999999998,0.1260328699273236,2,0.6714686286031359,0.4508701191981761,1,533.5159959523381,2,0.7304043201733974,0.8096214706451432
3,35,1,0.7704749893219308,0.9,0.22952501067806919,0.09999999999999998,0.16476250533903458,1,0.6537207929129304,0.42735087508671044,1,503.17874320138225,1,0.6906248059706706,0.8096214706451432
3,36,1,0.7062231199834715,0.9,0.29377688001652846,0.09999999999999998,0.19688844000826422,1,0.5058886348513357,0.2559233108717481,0,567.8616379404239,0,0.6046982853546408,0.8096214706451432
3,37,1,0.7139282296324811,0.9,0.28607177036751885,0.09999999999999998,0.19303588518375941,5,0.6691889753512305,0.4478138847316297,0,440.66381846560967,0,0.6734878019776667,0.8096214706451432
3,38,1,0.7145341743220032,0.9,0.28546582567799683,0.09999999999999998,0.1927329128389984,10,0.7596970292766682,0.5771395762917948,1,532.4774709767245,10,0.7102727475550219,0.8096214706451432
3,39,1,0.7610621353393462,0.9,0.2389378646606538,0.09999999999999998,0.1694689323303269,5,0.7584884262585964,0.5753046927682421,0,449.2086353811278,0,0.7302396350726575,0.8096214706451432
3,40,1,0.7465526294202577,0.9,0.2534473705797423,0.09999999999999998,0.17672368528987115,1,0.6791018516383409,0.4611793248986232,1,540.5919125209384,1,0.6911823922198834,0.8096214706451432
3,41,1,0.881439006141166,0.9,0.11856099385883401,0.09999999999999998,0.10928049692941699,5,0.4322388878340633,0.18683045615602795,1,418.1587186403805,5,0.6378615552249607,0.8096214706451432
3,42,1,0.77632238797344,0.9,0.22367761202656,0.09999999999999998,0.16183880601328,2,0.6348978272835274,0.4030952510893438,1,481.889555878424,2,0.6851539574811278,0.8096214706451432
3,43,1,0.7845096856623889,0.9,0.21549031433761112,0.09999999999999998,0.15774515716880555,1,0.5673844937369288,0.321925163733111,0,487.215535991039,0,0.6600685902142241,0.8096214706451432
3,44,1,0.7254907918845738,0.9,0.27450920811542623,0.09999999999999998,0.1872546040577131,1,0.6712033135698046,0.4505138881470854,0,476.0787159811377,0,0.6791313993936763,0.8096214706451432
3,45,1,0.8609813553682877,0.9,0.13901864463171232,0.09999999999999998,0.11950932231585615,10,0.5963552726404968,0.3556396112061213,1,483.9330610123865,10,0.7027879679159437,0.8096214706451432
3,46,1,0.8256476220926563,0.9,0.1743523779073437,0.09999999999999998,0.13717618895367184,1,0.6655585123288356,0.44296813333337276,1,455.2731695906193,1,0.7185417715641094,0.8096214706451432
3,47,1,0.8407371954921592,0.9,0.1592628045078408,0.09999999999999998,0.1296314022539204,1,0.5845789883160748,0.3417325935806455,1,469.500486286632,1,0.6895838960392817,0.8096214706451432
3,48,1,0.8134341559838771,0.9,0.18656584401612286,0.09999999999999998,0.14328292200806142,10,0.6820867150025116,0.4652422867829175,1,393.9606746803379,10,0.7205362077030053,0.8096214706451432
3,49,1,0.7599838223013969,0.9,0.24001617769860306,0.09999999999999998,0.17000808884930152,2,0.547347521284242,0.2995893090560038,0,503.70521933812705,0,0.6421429632025021,0.8096214706451432
3,50,1,0.8754523525652359,0.9,0.1245476474347641,0.09999999999999998,0.11227382371738204,1,0.6797866311777451,0.4621098639279876,1,476.42602569602224,1,0.74559528153304,0.8096214706451432
3,51,2,0.3157938324381657,0.9,0.6842061675618343,0.09999999999999998,0.3921030837809171,1,0.6523345409741624,0.4255403533479712,0,592.151051877148,0,0.5022245360102335,0.8096214706451432
3,52,2,0.35355533509766685,0.9,0.6464446649023332,0.09999999999999998,0.3732223324511666,2,0.7021796829407366,0.4930563071347534,1,599.8426465716858,2,0.5334441057113039,0.8096214706451432
3,53,2,0.46627470287714196,0.9,0.5337252971228581,0.09999999999999998,0.31686264856142904,5,0.8445445778458993,0.7132555439689083,0,506.3913644421136,0,0.6300386487600124,0.8096214706451432
3,54,2,0.3065291355091337,0.9,0.6934708644908663,0.09999999999999998,0.3967354322454331,5,0.7700211391718024,0.5929325547714402,0,676.3952340412977,0,0.5338955187194617,0.8096214706451432
3,55,2,0.36338931755822385,0.9,0.6366106824417761,0.09999999999999998,0.36830534122088804,10,0.5811417498027531,0.33772573336380574,0,546.880541617482,0,0.499399399061529,0.8096214706451432
3,56,2,0.3329649350693524,0.9,0.6670350649306476,0.09999999999999998,0.3835175324653238,2,0.860569899916307,0.7405805526419625,0,594.7439924271687,0,0.5735043614605753,0.8096214706451432
3,57,2,0.4405267546171032,0.9,0.5594732453828968,0.09999999999999998,0.3297366226914484,10,0.5964220167122106,0.3557192220190604,1,558.7147912887689,10,0.5350116062656276,0.8096214706451432
3,58,2,0.4573500670308874,0.9,0.5426499329691126,0.09999999999999998,0.3213249664845563,5,0.7165892817223602,0.5135001986793681,0,531.9055201534425,0,0.5825031441525871,0.8096214706451432
3,59,2,0.44871878323531195,0.9,0.5512812167646881,0.09999999999999998,0.32564060838234404,1,0.6135523304282822,0.3764464621739759,0,458.89880336571105,0,0.5440570839454337,0.8096214706451432
3,60,2,0.30058420652427237,0.9,0.6994157934757277,0.09999999999999998,0.39970789673786383,1,0.6447191982932212,0.4156628446478539,1,553.5886093396164,1,0.4936559734095261,0.8096214706451432
3,61,2,0.35536286155826113,0.9,0.6446371384417389,0.09999999999999998,0.3723185692208694,1,0.5533133524999605,0.30615566605474553,0,426.70692629917767,0,0.4874929737727516,0.8096214706451432
3,62,2,0.3939487525981368,0.9,0.6060512474018632,0.09999999999999998,0.3530256237009316,10,0.5975653598002981,0.35708435923325976,0,512.6806413886221,0,0.5167919261268974,0.8096214706451432
3,63,2,0.30110115983208413,0.9,0.6988988401679159,0.09999999999999998,0.39944942008395795,2,0.6572947695095213,0.43203641402457466,0,592.8776226123898,0,0.49764466746038305,0.8096214706451432
3,64,2,0.3877076977074871,0.9,0.6122923022925129,0.09999999999999998,0.3561461511462564,10,0.5007445981543018,0.2507451525807132,0,562.5206894858176,0,0.48313009283405595,0.8096214706451432
3,65,2,0.37940300824743833,0.9,0.6205969917525617,0.09999999999999998,0.3602984958762808,1,0.7749144344828115,0.6004923807698156,0,501.8336198194646,0,0.5677077167147774,0.8096214706451432
3,66,2,0.475972535472232,0.9,0.524027464527768,0.09999999999999998,0.312013732263884,5,0.6685407676029327,0.44694675794711847,0,580.5573585508726,0,0.5739665676343478,0.8096214706451432
3,67,2,0.4985633677998141,0.9,0.501436632200186,0.09999999999999998,0.300718316100093,1,0.8138808680106896,0.6624020673138336,0,473.35989363215555,0,0.63420683388817,0.8096214706451432
3,68,2,0.43418860094850154,0.9,0.5658113990514985,0.09999999999999998,0.3329056995257492,1,0.5207347906059367,0.2711647221474088,0,592.550146500937,0,0.5072367556730618,0.8096214706451432
3,69,2,0.49101210229699777,0.9,0.5089878977030022,0.09999999999999998,0.3044939488515011,2,0.736138811845608,0.5419003503054635,1,538.717579600793,2,0.6037475246361929,0.8096214706451432
3,70,2,0.4435144249463189,0.9,0.5564855750536811,0.09999999999999998,0.32824278752684055,5,0.691453030439883,0.4781072933044978,0,498.588889956218,0,0.568122886378787,0.8096214706451432
3,71,2,0.322897527613181,0.9,0.677102472386819,0.09999999999999998,0.3885512361934095,2,0.760172745698444,0.5778626033027111,1,594.8277801085869,2,0.5381277247216829,0.8096214706451432
3,72,2,0.4192643037720737,0.9,0.5807356962279263,0.09999999999999998,0.34036784811396315,10,0.6687489219570009,0.44722512061865083,1,539.0780563864272,10,0.5503802211740003,0.8096214706451432
3,73,2,0.37095425836719687,0.9,0.6290457416328031,0.09999999999999998,0.36452287081640156,5,0.8698606629742869,0.7566575729900659,0,469.11156074331944,0,0.59412684304012,0.8096214706451432
3,74,2,0.4776078128720236,0.9,0.5223921871279764,0.09999999999999998,0.3111960935639882,1,0.6907379839807057,0.4771189625137297,0,562.2319596772232,0,0.5822934640628287,0.8096214706451432
3,75,2,0.4447946110932187,0.9,0.5552053889067813,0.09999999999999998,0.32760269445339063,5,0.6976983563905762,0.4867829965101115,0,612.8429319871768,0,0.5707639002339654,0.8096214706451432
3,76,2,0.49825264534672664,0.9,0.5017473546532734,0.09999999999999998,0.30087367732663667,2,0.6625639552844124,0.4389909948421248,1,513.5998648059228,2,0.5811711121336366,0.8096214706451432
3,77,2,0.3972000987595206,0.9,0.6027999012404794,0.09999999999999998,0.3513999506202397,1,0.7661659393364956,0.5870102465993746,0,519.0103502480305,0,0.572767657733251,0.8096214706451432
3,78,2,0.3432102730023374,0.9,0.6567897269976626,0.09999999999999998,0.3783948634988313,1,0.782814363594567,0.612798327849967,0,599.6032421977998,0,0.5541032829192226,0.8096214706451432
3,79,2,0.438498565333845,0.9,0.561501434666155,0.09999999999999998,0.3307507173330775,2,0.6041184196805206,0.36495906499728964,0,530.4106199474529,0,0.536777550841993,0.8096214706451432
3,80,2,0.47234849898365905,0.9,0.527651501016341,0.09999999999999998,0.31382575050817046,2,0.8103766226238598,0.6567102704952537,0,500.6077371601175,0,0.62111691016324,0.8096214706451432
3,81,2,0.47151246753225673,0.9,0.5284875324677433,0.09999999999999998,0.3142437662338716,5,0.6353970534851459,0.40372941557760533,0,542.3398501145804,0,0.5607418620550986,0.8096214706451432
3,82,2,0.30246194060321513,0.9,0.6975380593967848,0.09999999999999998,0.3987690296983924,5,0.8640806932157044,0.7466354443881322,0,572.2009759499663,0,0.5603715219512857,0.8096214706451432
3,83,2,0.3749105774040243,0.9,0.6250894225959758,0.09999999999999998,0.3625447112979879,10,0.7357301028155561,0.5412987841889887,1,483.708668991447,10,0.5532251668995318,0.8096214706451432
3,84,2,0.4523813640264831,0.9,0.5476186359735169,0.09999999999999998,0.32380931798675844,5,0.8062024225215374,0.6499623460795955,1,586.3067436833716,5,0.6106686239694037,0.8096214706451432
3,85,2,0.31434237776953017,0.9,0.6856576222304698,0.09999999999999998,0.3928288111152349,2,0.6165600611969057,0.380146309063132,0,566.6104020128439,0,0.49076434713027683,0.8096214706451432
3,86,2,0.40621706897704857,0.9,0.5937829310229514,0.09999999999999998,0.3468914655114757,10,0.8736542339769153,0.7632717205457907,1,493.59721532318133,10,0.6118497854454409,0.8096214706451432
3,87,2,0.39711793993187955,0.9,0.6028820600681204,0.09999999999999998,0.3514410300340602,10,0.6891523071061124,0.4749309023896775,1,557.4264322229943,10,0.5477574402061656,0.8096214706451432
3,88,2,0.3198604405507386,0.9,0.6801395594492614,0.09999999999999998,0.3900697797246307,2,0.6931581982279642,0.4804682877706377,1,529.2045626004864,2,0.5163541764031149,0.8096214706451432
3,89,2,0.30467041926563715,0.9,0.6953295807343629,0.09999999999999998,0.39766479036718144,5,0.701011853316974,0.4914176184908987,1,490.26509730489465,5,0.5122896656277943,0.8096214706451432
3,90,2,0.46709604727646553,0.9,0.5329039527235344,0.09999999999999998,0.3164519763617672,1,0.6628498099446445,0.43936987054365134,0,540.0997331671196,0,0.5683188505974364,0.8096214706451432
3,91,2,0.42058857529589233,0.9,0.5794114247041077,0.09999999999999998,0.3397057123520538,10,0.59540159086112,0.3545030543999525,0,547.121548794356,0,0.5267172784750216,0.8096214706451432
3,92,2,0.33031685857397597,0.9,0.669683141426024,0.09999999999999998,0.384841570713012,1,0.5427904438072344,0.2946214658884545,0,504.8350533876899,0,0.47453027306571677,0.8096214706451432
3,93,2,0.3308290086356974,0.9,0.6691709913643026,0.09999999999999998,0.3845854956821513,1,0.5729708421424285,0.32829558594540376,1,564.2450182099295,1,0.48401453556175583,0.8096214706451432
3,94,2,0.4677098429805656,0.9,0.5322901570194344,0.09999999999999998,0.3161450785097172,5,0.5657287808340923,0.3200490534640284,1,494.6001637651155,5,0.5353656662461872,0.8096214706451432
3,95,2,0.311529516439805,0.9,0.688470483560195,0.09999999999999998,0.3942352417800975,2,0.5922121817801317,0.35071526824878374,0,596.3623397293458,0,0.4822530136654125,0.8096214706451432
3,96,2,0.40896553150903736,0.9,0.5910344684909626,0.09999999999999998,0.3455172342454813,1,0.5766848428786104,0.3325654080059276,0,557.9490291913409,0,0.5159565283452109,0.8096214706451432
3,97,2,0.42524686428421277,0.9,0.5747531357157872,0.09999999999999998,0.3373765678578936,5,0.7437693681083665,0.5531928729363187,0,494.1320330558153,0,0.5777312217801189,0.8096214706451432
3,98,2,0.36009787712008645,0.9,0.6399021228799135,0.09999999999999998,0.36995106143995676,2,0.889919348222036,0.7919564463399333,1,578.3612957685214,2,0.5953708396556912,0.8096214706451432
3,99,2,0.3790275486528637,0.9,0.6209724513471363,0.09999999999999998,0.36048622567356814,10,0.7355248677735285,0.5409968311132667,0,572.6320184082482,0,0.5549460293136154,0.8096214706451432
3,100,2,0.32647447580699446,0.9,0.6735255241930056,0.09999999999999998,0.3867627620965028,5,0.7260297440601879,0.527119189260102,0,566.8105128112037,0,0.5292328563933749,0.8096214706451432
3,101,3,0.8739938319295371,0.4,0.12600616807046294,0.6,0.36300308403523146,1,0.7237174961526979,0.5237670142375302,1,617.9796557627631,1,0.5490013645218906,0.8096214706451432
3,102,3,0.8361511785920971,0.4,0.1638488214079029,0.6,0.38192441070395144,1,0.6862353817067499,0.47091899910620877,0,487.3242045978733,0,0.5211104636201234,0.8096214706451432
3,103,3,0.7966814871946293,0.4,0.20331851280537072,0.6,0.40165925640268535,10,0.5142048709282783,0.2644066492863673,1,565.1464079009036,10,0.453005234214951,0.8096214706451432
3,104,3,0.8044888290810929,0.4,0.19551117091890713,0.6,0.39775558545945355,2,0.6455396614152087,0.41672145446006226,1,623.4946141548561,2,0.4955085349961257,0.8096214706451432
3,105,3,0.7984650960002364,0.4,0.2015349039997636,0.6,0.4007674519998818,2,0.759964163956928,0.5775455304987526,1,559.5807045722494,2,0.5273139051784039,0.8096214706451432
3,106,3,0.7886911672763808,0.4,0.21130883272361922,0.6,0.4056544163618096,5,0.7497731752384179,0.5621598143070994,0,621.3149897019648,0,0.5199849795357635,0.8096214706451432
3,107,3,0.7400949031056805,0.4,0.2599050968943195,0.6,0.42995254844715974,1,0.5796748050123046,0.33602287956605337,1,619.172733943569,1,0.450244798439747,0.8096214706451432
3,108,3,0.762379816000856,0.4,0.23762018399914397,0.6,0.418810091999572,5,0.7729845533220032,0.5975051196744169,1,401.3251405344573,5,0.5152203647156975,0.8096214706451432
3,109,3,0.8852765213460174,0.4,0.11472347865398258,0.6,0.3573617393269913,10,0.9127282322569555,0.833072825958907,1,538.9392288897737,10,0.6145961721588843,0.8096214706451432
3,110,3,0.8639595609969455,0.4,0.13604043900305451,0.6,0.36802021950152725,1,0.6036336041935036,0.3643735281116394,0,515.844730341153,0,0.5067320065890926,0.8096214706451432
3,111,3,0.7017726570226938,0.4,0.29822734297730624,0.6,0.4491136714886531,5,0.7135232617630808,0.5091154450770259,0,545.5581934018712,0,0.4719782692457256,0.8096214706451432
3,112,3,0.7138059081775698,0.4,0.28619409182243016,0.6,0.44309704591121507,1,0.803501453288403,0.6456145854365756,0,590.293534935203,0,0.5021876435198641,0.8096214706451432
3,113,3,0.8532231865591172,0.4,0.14677681344088278,0.6,0.3733884067204414,10,0.6333180487785377,0.40109175090865423,1,564.3406586256418,10,0.5117280124386897,0.8096214706451432
3,114,3,0.8446298972929259,0.4,0.15537010270707408,0.6,0.377685051353537,2,0.5329543592272934,0.2840403490193749,1,478.3821593337271,2,0.47699020666995234,0.8096214706451432
3,115,3,0.7697641067938958,0.4,0.23023589320610416,0.6,0.41511794660305207,5,0.8218096036810281,0.6753710247023684,1,636.3761809329457,5,0.5327718709496198,0.8096214706451432
3,116,3,0.7012177496479678,0.4,0.2987822503520322,0.6,0.4493911251760161,5,0.5366469449256188,0.28798994349800017,1,591.8173284288898,5,0.4230457226736037,0.8096214706451432
3,117,3,0.8001248536140836,0.4,0.1998751463859164,0.6,0.3999375731929582,2,0.6923443365430056,0.4793406803431747,1,469.85514302567077,2,0.5077561247895745,0.8096214706451432
3,118,3,0.8420220112843413,0.4,0.1579779887156587,0.6,0.37898899435782935,10,0.5977058895582393,0.3572523304126062,1,515.7545423440247,10,0.4960964705974906,0.8096214706451432
3,119,3,0.860696548659377,0.4,0.13930345134062305,0.6,0.3696517256703115,2,0.6468017061974347,0.41835244713991265,1,511.3286579162693,2,0.5190293068323698,0.8096214706451432
3,120,3,0.8166514984912231,0.4,0.1833485015087769,0.6,0.39167425075438844,5,0.7661858042667804,0.5870406866599331,0,478.9207750569649,0,0.5372081513437761,0.8096214706451432
3,121,3,0.8206986192086757,0.4,0.1793013807913243,0.6,0.38965069039566214,1,0.8499486971479525,0.7224127877835019,1,507.97146517283,1,0.5645574550538486,0.8096214706451432
3,122,3,0.8439582906709372,0.4,0.1560417093290628,0.6,0.3780208546645314,10,0.9158658428724931,0.8388102421405421,1,457.3014478849683,10,0.5958142997636252,0.8096214706451432
3,123,3,0.7143551612453025,0.4,0.2856448387546975,0.6,0.44282241937734873,10,0.4710005819757335,0.22184154822147967,1,675.7795991138095,10,0.4098042726798756,0.8096214706451432
3,124,3,0.7606388118922092,0.4,0.23936118810779083,0.6,0.4196805940538954,5,0.8200022604205156,0.672403707094755,1,681.8869541196709,5,0.5280913152939005,0.8096214706451432
3,125,3,0.8550692300806271,0.4,0.14493076991937293,0.6,0.37246538495968645,2,0.5825619901443367,0.3393784723609303,0,537.2721755235576,0,0.4965562146313295,0.8096214706451432
3,126,3,0.864755618020233,0.4,0.13524438197976696,0.6,0.36762219098988347,5,0.6302884660244095,0.39726355040340317,1,548.0267597631293,5,0.5154791240994899,0.8096214706451432
3,127,3,0.8413952974911432,0.4,0.15860470250885683,0.6,0.3793023512544284,5,0.6009288991647349,0.36111554185134015,1,675.5862948628416,5,0.4968464017601935,0.8096214706451432
3,128,3,0.8880897011472345,0.4,0.11191029885276549,0.6,0.35595514942638273,10,0.6223728766646807,0.3873479976078698,1,529.3629557226135,10,0.522440448463097,0.8096214706451432
3,129,3,0.754078657276905,0.4,0.24592134272309496,0.6,0.42296067136154747,5,0.7360740137178623,0.5418049536707237,0,606.2778278396356,0,0.5008914916712095,0.8096214706451432
3,130,3,0.8885967633632085,0.4,0.11140323663679152,0.6,0.35570161831839575,5,0.6654558063405799,0.44283143019239135,0,577.9675709653931,0,0.5365252403937334,0.8096214706451432
3,131,3,0.7178579049051146,0.4,0.2821420950948854,0.6,0.4410710475474427,2,0.7304752217744931,0.5335940496264948,0,531.5302064482456,0,0.4836063514757622,0.8096214706451432
3,132,3,0.8688497404811637,0.4,0.1311502595188363,0.6,0.36557512975941814,5,0.7886185453437282,0.6219192100600579,0,592.6172204837636,0,0.5673720442697966,0.8096214706451432
3,133,3,0.8522075580501566,0.4,0.14779244194984342,0.6,0.3738962209749217,1,0.7352174409889749,0.5405446855343768,1,546.5346612450649,1,0.5432130986167115,0.8096214706451432
3,134,3,0.7950813215700148,0.4,0.20491867842998523,0.6,0.4024593392149926,5,0.6631989384117545,0.4398328319104781,1,561.4067564116341,5,0.49691449633774126,0.8096214706451432
3,135,3,0.8913599630968573,0.4,0.10864003690314272,0.6,0.35432001845157135,10,0.680219259018064,0.4626982403390841,1,593.8600080098744,10,0.542441970080049,0.8096214706451432
3,136,3,0.8268848290573168,0.4,0.17311517094268325,0.6,0.3865575854713416,5,0.649758700445497,0.42218636880462107,0,543.6023896559792,0,0.5060159802954736,0.8096214706451432
3,137,3,0.7833008863807758,0.4,0.21669911361922423,0.6,0.4083495568096121,1,0.871554354128434,0.7596069922002316,1,504.26807292824515,1,0.5536529815374941,0.8096214706451432
3,138,3,0.8739526353363422,0.4,0.12604736466365785,0.6,0.3630236823318289,2,0.6637439675027098,0.4405560543962383,1,560.7889785484282,2,0.5298827529812546,0.8096214706451432
3,139,3,0.8215504244505445,0.4,0.1784495755494555,0.6,0.38922478777472774,2,0.768941053967661,0.5912703444768973,1,531.6525089125831,2,0.5402126738255475,0.8096214706451432
3,140,3,0.8474193100864102,0.4,0.15258068991358975,0.6,0.37629034495679486,2,0.5774752417410679,0.3334776548239048,0,637.2732269757297,0,0.49194326943275896,0.8096214706451432
3,141,3,0.7398430549788106,0.4,0.26015694502118936,0.6,0.43007847251059467,10,0.8183989641535196,0.6697768645275539,0,573.0434870647771,0,0.5181723576177633,0.8096214706451432
3,142,3,0.8087611455732475,0.4,0.19123885442675248,0.6,0.39561942721337623,5,0.5517091420058524,0.3043829773728338,1,506.82413420908347,5,0.46891143002186886,0.8096214706451432
3,143,3,0.724873679800102,0.4,0.275126320199898,0.6,0.437563160099949,2,0.7871234592684253,0.6195633401306924,1,538.7810875797221,2,0.5025720354710903,0.8096214706451432
3,144,3,0.8449712998630035,0.4,0.15502870013699654,0.6,0.37751435006849826,1,0.6991585107183127,0.488822623109849,1,570.6944097074787,1,0.5288508949405657,0.8096214706451432
