subject_id,trial,block,evidence_clarity,rule_stability,decision_uncertainty,state_uncertainty,total_uncertainty,reward_magnitude,control_signal,effort_cost,accuracy,reaction_time,obtained_reward,confidence,uncertainty_tolerance
1,1,1,0.7311989040672405,0.9,0.26880109593275947,0.09999999999999998,0.18440054796637972,5,0.3050480576064994,0.09305431744949817,1,500.1751873810926,5,0.5321982403307007,0.6156354589595345
1,2,1,0.8301776945897705,0.9,0.16982230541022947,0.09999999999999998,0.13491115270511472,1,0.35414180043662813,0.12541641481649654,1,478.8006754089642,1,0.5857264846067716,0.6156354589595345
1,3,1,0.7608484485919075,0.9,0.23915155140809252,0.09999999999999998,0.16957577570404625,2,0.19546683973808057,0.03820728543719248,1,561.4981099893124,2,0.4963723115305154,0.6156354589595345
1,4,1,0.8947511037682918,0.9,0.10524889623170819,0.09999999999999998,0.10262444811585408,5,0.6621387733992556,0.43842775523867084,1,453.2846420705039,5,0.7457813495435972,0.6156354589595345
1,5,1,0.8028468876827223,0.9,0.19715311231727772,0.09999999999999998,0.14857655615863885,10,0.7441361479344508,0.5537386066627229,1,464.9220746389251,10,0.7424992028012779,0.6156354589595345
1,6,1,0.7900998503939086,0.9,0.20990014960609138,0.09999999999999998,0.15495007480304568,2,0.3784058903151741,0.14319101782521956,1,556.0164244617282,2,0.5824108972509395,0.6156354589595345
1,7,1,0.8368466053024314,0.9,0.16315339469756862,0.09999999999999998,0.1315766973487843,5,0.6071197168824505,0.36859435062742685,0,557.8035668183416,0,0.6978301061454721,0.6156354589595345
1,8,1,0.7346729307015544,0.9,0.26532706929844563,0.09999999999999998,0.1826635346492228,1,0.5004383800050236,0.2504385721820524,1,443.71303989571334,1,0.6131815009949761,0.6156354589595345
1,9,1,0.8040136042355621,0.9,0.19598639576443788,0.09999999999999998,0.14799319788221893,2,0.3918346587040227,0.15353439976169794,0,508.54735741969466,0,0.5929262983195538,0.6156354589595345
1,10,1,0.7899508266739531,0.9,0.2100491733260469,0.09999999999999998,0.15502458666302343,2,0.46029992715088874,0.21187602293511348,0,544.5654352312487,0,0.6169587672701395,0.6156354589595345
1,11,1,0.7176985004103839,0.9,0.28230149958961614,0.09999999999999998,0.19115074979480806,5,0.5618124089681614,0.31563318287060865,0,502.43901744569376,0,0.631635397977531,0.6156354589595345
1,12,1,0.8494640220274762,0.9,0.15053597797252383,0.09999999999999998,0.1252679889862619,5,0.46689900715286575,0.21799468288033177,1,543.7466072915378,5,0.6415717592404411,0.6156354589595345
1,13,1,0.8085392166316496,0.9,0.19146078336835037,0.09999999999999998,0.14573039168417518,1,0.32923667931064754,0.10839679100350216,1,485.1291793043295,1,0.5677632486968672,0.6156354589595345
1,14,1,0.7846802961412739,0.9,0.21531970385872612,0.09999999999999998,0.15765985192936305,1,0.4732784431231244,0.22399248472504849,0,544.3575342461643,0,0.620500790964805,0.6156354589595345
1,15,1,0.8542540693371892,0.9,0.14574593066281083,0.09999999999999998,0.1228729653314054,1,0.4318872658113475,0.18652661037000154,0,523.5253953272406,0,0.6279735157204145,0.6156354589595345
1,16,1,0.8700077155579599,0.9,0.12999228444204014,0.09999999999999998,0.11499614222102006,10,0.5967310578982775,0.35608795546039745,1,465.54278804328743,10,0.7065565730377437,0.6156354589595345
1,17,1,0.7650366644053493,0.9,0.23496333559465066,0.09999999999999998,0.16748166779732532,5,0.35067972316988594,0.12297626824250783,0,547.0741751834535,0,0.5622328152366819,0.6156354589595345
1,18,1,0.776585374950758,0.9,0.22341462504924203,0.09999999999999998,0.161707312524621,5,0.6060574424641294,0.36730562356616153,1,527.6862227057704,5,0.6731731048415445,0.6156354589595345
1,19,1,0.8541934359909122,0.9,0.14580656400908776,0.09999999999999998,0.12290328200454387,5,0.4981821712769833,0.2481854757782495,1,438.77488387891606,5,0.6570253326931741,0.6156354589595345
1,20,1,0.8791527191347039,0.9,0.12084728086529606,0.09999999999999998,0.11042364043264802,1,0.41835232797188665,0.17501867031949703,0,391.9134136025611,0,0.6308663502505549,0.6156354589595345
1,21,1,0.749858445829775,0.9,0.250141554170225,0.09999999999999998,0.17507077708511248,1,0.2753774967106707,0.07583276569463544,0,534.500332702725,0,0.5260480836423339,0.6156354589595345
1,22,1,0.8197730932977072,0.9,0.1802269067022928,0.09999999999999998,0.1401134533511464,5,0.5613958963721827,0.31516535246352645,0,543.803779014727,0,0.6713116626415838,0.6156354589595345
1,23,1,0.8607344153798229,0.9,0.13926558462017713,0.09999999999999998,0.11963279231008855,10,0.7389869664910211,0.5461017366436016,1,451.50651920207457,10,0.7654735499494248,0.6156354589595345
1,24,1,0.7244175909401346,0.9,0.2755824090598654,0.09999999999999998,0.1877912045299327,1,0.3486179518342481,0.12153447634110613,1,505.09245884566667,1,0.5476796811043019,0.6156354589595345
1,25,1,0.7854215577252512,0.9,0.21457844227474876,0.09999999999999998,0.15728922113737437,10,0.4921447727245376,0.24220647732008677,1,447.01864980035504,10,0.6287232417992452,0.6156354589595345
1,26,1,0.8068178838750883,0.9,0.19318211612491165,0.09999999999999998,0.14659105806245581,2,0.39833888004434365,0.158673863354982,1,489.68658659080535,2,0.5966774520443869,0.6156354589595345
1,27,1,0.8885819407825039,0.9,0.11141805921749615,0.09999999999999998,0.10570902960874806,2,0.46537812080669283,0.21657679532556878,1,412.2490507526172,2,0.6552372108231633,0.6156354589595345
1,28,1,0.7129784494217962,0.9,0.2870215505782038,0.09999999999999998,0.19351077528910188,2,0.24904867009999465,0.06202524007857597,1,531.8226718042703,2,0.5036721467875616,0.6156354589595345
1,29,1,0.7073773894709066,0.9,0.29262261052909344,0.09999999999999998,0.1963113052645467,1,0.41344783293565046,0.17093911055918554,1,534.7937250380354,1,0.567986021964354,0.6156354589595345
1,30,1,0.7690142496053366,0.9,0.2309857503946634,0.09999999999999998,0.1654928751973317,1,0.35857194755678734,0.12857384157466745,1,492.71575678652664,1,0.566868984896588,0.6156354589595345
1,31,1,0.8971300908221201,0.9,0.10286990917787986,0.09999999999999998,0.10143495458893992,10,0.5740178734489659,0.32949651903887306,1,481.46166839145013,10,0.7071787209667452,0.6156354589595345
1,32,1,0.7484319876554851,0.9,0.25156801234451487,0.09999999999999998,0.17578400617225742,2,0.5800584667251947,0.33646782481958376,0,424.6368020395437,0,0.6511547297289227,0.6156354589595345
1,33,1,0.8071549368149517,0.9,0.19284506318504835,0.09999999999999998,0.14642253159252416,10,0.58731657346259,0.3449407574638379,1,504.1064328685409,10,0.6774488311687134,0.6156354589595345
1,34,1,0.8391625613581764,0.9,0.16083743864182365,0.09999999999999998,0.1304187193209118,5,0.6830294521863605,0.4665292325539997,1,514.5021413594064,5,0.7317654532264197,0.6156354589595345
1,35,1,0.8024186116598562,0.9,0.19758138834014383,0.09999999999999998,0.1487906941700719,5,0.4382206968283617,0.1920373791287349,0,487.31845011440083,0,0.6121134204887527,0.6156354589595345
1,36,1,0.7795144042175044,0.9,0.2204855957824956,0.09999999999999998,0.1602427978912478,5,0.430604632103398,0.18542034918890274,0,488.90930034675074,0,0.6006802715894852,0.6156354589595345
1,37,1,0.8754678706761962,0.9,0.12453212932380375,0.09999999999999998,0.11226606466190187,5,0.45190049832822404,0.2042140603892972,0,462.366695589119,0,0.64445067155013,0.6156354589595345
1,38,1,0.8033271782542029,0.9,0.19667282174579714,0.09999999999999998,0.14833641087289856,1,0.3814545220581554,0.14550755239861576,0,496.0621352012788,0,0.5882672582359565,0.6156354589595345
1,39,1,0.8800836114326661,0.9,0.11991638856733389,0.09999999999999998,0.10995819428366693,5,0.4545885223559579,0.20665072465777326,0,445.19788820626445,0,0.6473222975059747,0.6156354589595345
1,40,1,0.8693322284476612,0.9,0.13066777155233877,0.09999999999999998,0.11533388577616938,10,0.6695574986568802,0.4483072440076581,1,484.96682634201153,10,0.7385004724050203,0.6156354589595345
1,41,1,0.7168279929990097,0.9,0.2831720070009903,0.09999999999999998,0.19158600350049515,10,0.6781448263402287,0.45988040549201886,1,544.7956916892613,10,0.6783178828833359,0.6156354589595345
1,42,1,0.7744565533123486,0.9,0.22554344668765136,0.09999999999999998,0.16277172334382567,1,0.43318686735741535,0.18765086205093096,0,444.6700856494442,0,0.5999522855419549,0.6156354589595345
1,43,1,0.8303922519005201,0.9,0.16960774809947987,0.09999999999999998,0.13480387404973992,1,0.2792088306435522,0.0779575711093398,1,511.2558978720104,1,0.5533832622770819,0.6156354589595345
1,44,1,0.8488341046113125,0.9,0.15116589538868752,0.09999999999999998,0.12558294769434375,5,0.5951325825605099,0.3541827908251422,1,573.0012751849495,5,0.6974055654396351,0.6156354589595345
1,45,1,0.7735431606118867,0.9,0.22645683938811334,0.09999999999999998,0.16322841969405666,5,0.5625466113492013,0.3164586899404693,0,417.7990829047003,0,0.6537472986401839,0.6156354589595345
1,46,1,0.797348430591891,0.9,0.20265156940810902,0.09999999999999998,0.1513257847040545,10,0.7504986380988129,0.5632482057881729,1,497.2458717859348,10,0.7428015290325656,0.6156354589595345
1,47,1,0.8153807769252718,0.9,0.18461922307472822,0.09999999999999998,0.1423096115373641,10,0.5959930231934674,0.35520768369528893,1,508.27343434910335,10,0.6844339380232308,0.6156354589595345
1,48,1,0.8144008398418366,0.9,0.18559916015816336,0.09999999999999998,0.14279958007908167,10,0.5260122038297785,0.2766888385778605,0,514.3622744029059,0,0.6540491509636661,0.6156354589595345
1,49,1,0.8907857154005174,0.9,0.10921428459948257,0.09999999999999998,0.10460714229974127,1,0.4411733260936207,0.19463390365650818,0,512.5935751641869,0,0.6452081514461769,0.6156354589595345
1,50,1,0.7661500609341028,0.9,0.23384993906589724,0.09999999999999998,0.1669249695329486,2,0.3939597156676208,0.15520425756891262,1,549.534009038303,2,0.5806365162998227,0.6156354589595345
1,51,2,0.4702273343033714,0.9,0.5297726656966286,0.09999999999999998,0.3148863328483143,10,0.3298253892621501,0.10878478740192885,0,548.0824433361356,0,0.45554077455440484,0.6156354589595345
1,52,2,0.4688426281452623,0.9,0.5311573718547378,0.09999999999999998,0.3155786859273689,5,0.4026325355232733,0.16211295866189995,0,562.0966075231597,0,0.47999580156193267,0.6156354589595345
1,53,2,0.49801077002085264,0.9,0.5019892299791473,0.09999999999999998,0.30099461498957364,2,0.362354937873281,0.13130110100114933,1,502.7098027627642,2,0.4761467189344841,0.6156354589595345
1,54,2,0.46973395898493486,0.9,0.5302660410150651,0.09999999999999998,0.31513302050753256,1,0.3388007838178825,0.11478597111561153,1,629.7600579790686,1,0.4584502244777506,0.6156354589595345
1,55,2,0.46187223109570275,0.9,0.5381277689042973,0.09999999999999998,0.3190638844521486,5,0.5562961362403611,0.3094653911959544,1,468.2945107429069,5,0.5298691228268206,0.6156354589595345
1,56,2,0.30103697255479733,0.9,0.6989630274452027,0.09999999999999998,0.3994815137226013,10,0.5835880945266695,0.34057506407326893,0,618.2639266731434,0,0.4754869627060328,0.6156354589595345
1,57,2,0.4591585338872202,0.9,0.5408414661127798,0.09999999999999998,0.3204207330563899,10,0.40327801861601004,0.16263316029885494,0,655.8158225106212,0,0.47681932360457485,0.6156354589595345
1,58,2,0.3656305334949464,0.9,0.6343694665050537,0.09999999999999998,0.3671847332525268,2,0.2733112202222777,0.07469902309939039,0,600.689525050362,0,0.4028853897387556,0.6156354589595345
1,59,2,0.3061000499878099,0.9,0.6938999500121901,0.09999999999999998,0.396949975006095,10,0.328396636534232,0.10784435088699648,0,607.5466221901054,0,0.40054481243189405,0.6156354589595345
1,60,2,0.35430858316394837,0.9,0.6456914168360517,0.09999999999999998,0.37284570841802583,10,0.4645244796013527,0.21578299214890753,1,576.2241940443713,10,0.45924140625442283,0.6156354589595345
1,61,2,0.4062709263136296,0.9,0.5937290736863704,0.09999999999999998,0.3468645368431852,5,0.4108597910441573,0.16880576789684862,1,584.0890700317431,5,0.46074128153647637,0.6156354589595345
1,62,2,0.4939073734228318,0.9,0.5060926265771681,0.09999999999999998,0.30304631328858406,2,0.5528136898320634,0.30560297566574074,1,504.2040376295835,2,0.5411196129522069,0.6156354589595345
1,63,2,0.3877942841411272,0.9,0.6122057158588727,0.09999999999999998,0.35610285792943636,5,0.41307624258121634,0.17063198218501588,1,536.6093874225024,5,0.4549378770629279,0.6156354589595345
1,64,2,0.38566289498802153,0.9,0.6143371050119785,0.09999999999999998,0.3571685525059892,10,0.4240423716921845,0.17981193299033277,1,548.021266790531,10,0.4577096095438456,0.6156354589595345
1,65,2,0.3500485796329191,0.9,0.6499514203670809,0.09999999999999998,0.3749757101835404,2,0.47105042542716197,0.22188850329511028,0,594.2825272672877,0,0.4597211237184063,0.6156354589595345
1,66,2,0.4314222657000334,0.9,0.5685777342999666,0.09999999999999998,0.3342888671499833,1,0.30440697158026875,0.09266360434667055,1,662.0317528745604,1,0.43417912137408016,0.6156354589595345
1,67,2,0.3711945357302523,0.9,0.6288054642697477,0.09999999999999998,0.36440273213487384,1,0.4069064359042508,0.16557284758030016,1,527.8666292239408,1,0.447112943401302,0.6156354589595345
1,68,2,0.318831397653712,0.9,0.681168602346288,0.09999999999999998,0.39058430117314397,2,0.49805654650535536,0.2480603235168412,0,606.1013383728745,0,0.45646958858535375,0.6156354589595345
1,69,2,0.31956683213020026,0.9,0.6804331678697997,0.09999999999999998,0.39021658393489983,10,0.4754215648029196,0.22602566427965667,0,624.3626314222481,0,0.4498438009608199,0.6156354589595345
1,70,2,0.42995473652855265,0.9,0.5700452634714473,0.09999999999999998,0.33502263173572366,2,0.6043870490497322,0.36528370505904334,1,606.2312749733057,2,0.5334405387771897,0.6156354589595345
1,71,2,0.37492252292529427,0.9,0.6250774770747057,0.09999999999999998,0.36253873853735286,2,0.45204167947897606,0.2043416799861733,0,601.3542177028909,0,0.4628101603485044,0.6156354589595345
1,72,2,0.43679275387962824,0.9,0.5632072461203718,0.09999999999999998,0.33160362306018587,10,0.5745953365008006,0.3301598007284683,1,512.010709410036,10,0.5262269090317313,0.6156354589595345
1,73,2,0.41715511625469265,0.9,0.5828448837453073,0.09999999999999998,0.34142244187265364,5,0.5488221061590657,0.30120570420887277,0,599.1701615872836,0,0.5100097403239455,0.6156354589595345
1,74,2,0.325700070646782,0.9,0.6742999293532179,0.09999999999999998,0.38714996467660895,1,0.5123662834299306,0.2625192083958,0,568.4569818419769,0,0.4634268651109693,0.6156354589595345
1,75,2,0.49223811276478285,0.9,0.5077618872352172,0.09999999999999998,0.3038809436176086,2,0.3811682254691179,0.1452892161072763,1,509.64324926814646,2,0.4807287609094521,0.6156354589595345
1,76,2,0.3754518166455952,0.9,0.6245481833544049,0.09999999999999998,0.3622740916772024,1,0.46867883045949854,0.21965984612088338,1,530.6793684661811,1,0.46830727059462385,0.6156354589595345
1,77,2,0.36379512605875225,0.9,0.6362048739412478,0.09999999999999998,0.3681024369706239,2,0.33972506377577394,0.11541311895745367,0,640.55424372932,0,0.4232845014646436,0.6156354589595345
1,78,2,0.39920749085868124,0.9,0.6007925091413188,0.09999999999999998,0.35039625457065937,2,0.5462759227132579,0.2984173837362213,0,623.1187964729905,0,0.502233315430871,0.6156354589595345
1,79,2,0.44701420876077713,0.9,0.5529857912392229,0.09999999999999998,0.3264928956196114,1,0.4411924594178666,0.19465078624718588,0,578.5586173381826,0,0.48532668009868907,0.6156354589595345
1,80,2,0.41370405674999167,0.9,0.5862959432500083,0.09999999999999998,0.34314797162500416,5,0.4857491229937763,0.23595221048922282,0,560.2358483535627,0,0.4879586625474166,0.6156354589595345
1,81,2,0.4552825921483994,0.9,0.5447174078516006,0.09999999999999998,0.3223587039258003,10,0.5765781189637373,0.33244232726776163,1,592.6018754872418,10,0.5341772199484054,0.6156354589595345
1,82,2,0.43596895598004914,0.9,0.5640310440199509,0.09999999999999998,0.3320155220099754,5,0.44833142277914256,0.20100106465117026,0,567.8526671237016,0,0.4837314547008376,0.6156354589595345
1,83,2,0.40105047448957143,0.9,0.5989495255104286,0.09999999999999998,0.3494747627552143,10,0.39276742045322044,0.15426624656947685,1,523.4289319568961,10,0.4530151783085697,0.6156354589595345
1,84,2,0.3106970593494738,0.9,0.6893029406505262,0.09999999999999998,0.3946514703252631,1,0.4770334349251275,0.22756089803646587,0,564.1849448866819,0,0.4470600090561761,0.6156354589595345
1,85,2,0.41468757762465724,0.9,0.5853124223753428,0.09999999999999998,0.34265621118767137,5,0.600250165141782,0.3603002607527365,1,649.9321062478175,5,0.5259572533009267,0.6156354589595345
1,86,2,0.48923890857633806,0.9,0.510761091423662,0.09999999999999998,0.305380545711831,10,0.49566539866566905,0.24568418743439663,0,541.6067715346919,0,0.5194591415094219,0.6156354589595345
1,87,2,0.3883061002746754,0.9,0.6116938997253246,0.09999999999999998,0.3558469498626623,5,0.6677416288954818,0.4458788829599914,0,560.2090668251268,0,0.5371404285470183,0.6156354589595345
1,88,2,0.43760600203500777,0.9,0.5623939979649922,0.09999999999999998,0.3311969989824961,2,0.3676107616848147,0.13513767210648964,1,574.7823841008629,2,0.4573310908193192,0.6156354589595345
1,89,2,0.440193826291824,0.9,0.559806173708176,0.09999999999999998,0.329903086854088,2,0.5383692938536966,0.2898414965645279,1,533.4488377051565,2,0.5154282575449093,0.6156354589595345
1,90,2,0.40266523373847857,0.9,0.5973347662615214,0.09999999999999998,0.3486673831307607,2,0.5663984053735533,0.3208071536097041,0,524.0912878731068,0,0.5101231862158799,0.6156354589595345
1,91,2,0.49720021276457416,0.9,0.5027997872354258,0.09999999999999998,0.3013998936177129,10,0.6998836473013328,0.4898371197598164,0,472.71209692653076,0,0.5937694484211107,0.6156354589595345
1,92,2,0.3755975180244509,0.9,0.6244024819755492,0.09999999999999998,0.36220124098777456,5,0.5714082243702105,0.3265073588779169,1,543.5226233611401,5,0.5011211077024624,0.6156354589595345
1,93,2,0.3985250208581718,0.9,0.6014749791418281,0.09999999999999998,0.35073748957091405,1,0.5835158583811872,0.3404907569823338,0,451.1242925526793,0,0.5140587407584193,0.6156354589595345
1,94,2,0.45343897062171434,0.9,0.5465610293782857,0.09999999999999998,0.3232805146891428,5,0.6172440087783206,0.3809901663727316,0,573.8029086021128,0,0.5472102666212663,0.6156354589595345
1,95,2,0.4924345096949084,0.9,0.5075654903050917,0.09999999999999998,0.30378274515254583,5,0.40768508782723695,0.1662071308367019,0,548.1038335760742,0,0.4900273237683881,0.6156354589595345
1,96,2,0.3872671663213112,0.9,0.6127328336786888,0.09999999999999998,0.3563664168393444,2,0.47387027511389124,0.22455303763651496,1,560.152517579504,2,0.47431620314276757,0.6156354589595345
1,97,2,0.41077085688026416,0.9,0.5892291431197358,0.09999999999999998,0.3446145715598679,10,0.4791044539662146,0.22954107781026464,0,507.11837334129063,0,0.48469175313517765,0.6156354589595345
1,98,2,0.43938501117276296,0.9,0.560614988827237,0.09999999999999998,0.3303074944136185,5,0.47822671606626854,0.22870079195952744,0,600.0850330415138,0,0.494978676653574,0.6156354589595345
1,99,2,0.3554762365962265,0.9,0.6445237634037735,0.09999999999999998,0.37226188170188673,10,0.41689137251814823,0.17379841648006544,1,649.4466338688787,10,0.44471836200868664,0.6156354589595345
1,100,2,0.3531875849928478,0.9,0.6468124150071521,0.09999999999999998,0.37340620750357606,1,0.4761433118849169,0.22671245345273722,0,658.2160730233753,0,0.46247111803110086,0.6156354589595345
1,101,3,0.8627590039413897,0.4,0.1372409960586103,0.6,0.36862049802930513,10,0.6246859622751657,0.39023255146364977,1,527.9398053389295,10,0.5128967068600366,0.6156354589595345
1,102,3,0.8881063654270767,0.4,0.11189363457292334,0.6,0.35594681728646166,5,0.6355597573115834,0.40393620511395883,1,617.0610007262616,5,0.5266937336073538,0.6156354589595345
1,103,3,0.8865456966708026,0.4,0.11345430332919737,0.6,0.3567271516645987,2,0.3583112863477489,0.1283869779241785,1,580.6662628726341,2,0.4368823850475197,0.6156354589595345
1,104,3,0.8555204567470451,0.4,0.14447954325295487,0.6,0.3722397716264774,2,0.31117443146718715,0.09682952679892716,0,648.248107049495,0,0.41155158026768257,0.6156354589595345
1,105,3,0.8684237846271418,0.4,0.13157621537285824,0.6,0.3657881076864291,1,0.4778861178106452,0.22837514159612987,1,537.729035926399,1,0.46864647570032314,0.6156354589595345
1,106,3,0.8499821498939943,0.4,0.15001785010600566,0.6,0.3750089250530028,5,0.7107887484611415,0.5052206449389559,0,557.046726724684,0,0.5346138494539784,0.6156354589595345
1,107,3,0.8699294781354823,0.4,0.13007052186451773,0.6,0.36503526093225885,1,0.3819620586982372,0.1458950142849956,1,538.8520084931685,1,0.4387485890014222,0.6156354589595345
1,108,3,0.7549463594051817,0.4,0.24505364059481827,0.6,0.4225268202974091,10,0.7380895996883705,0.544776257168139,1,496.7169815284922,10,0.5018500638700234,0.6156354589595345
1,109,3,0.7716325436065681,0.4,0.22836745639343192,0.6,0.41418372819671595,10,0.6702294794751221,0.44920755515749317,1,535.9305535832816,10,0.4892238033610279,0.6156354589595345
1,110,3,0.8662742980125002,0.4,0.13372570198749978,0.6,0.3668628509937499,2,0.4991373382424775,0.24913808242778543,1,617.8073807953,2,0.4745797701518303,0.6156354589595345
1,111,3,0.875330720531669,0.4,0.12466927946833095,0.6,0.36233463973416546,1,0.39926133231579247,0.15940961148258168,1,695.7371482492151,1,0.44613024078860075,0.6156354589595345
1,112,3,0.8569336527888619,0.4,0.1430663472111381,0.6,0.37153317360556903,2,0.3859498280417029,0.14895726976542004,1,607.1675422774224,2,0.43551174498563816,0.6156354589595345
1,113,3,0.7029089331335764,0.4,0.2970910668664236,0.6,0.4485455334332118,2,0.6484819990891405,0.420528903142648,1,633.4151296504905,2,0.4545313807263273,0.6156354589595345
1,114,3,0.718200418210266,0.4,0.28179958178973397,0.6,0.44089979089486697,2,0.50694298672375,0.2569911917883962,0,473.03234718956463,0,0.4212660694933812,0.6156354589595345
1,115,3,0.779308556464254,0.4,0.220691443535746,0.6,0.410345721767873,5,0.745681476365106,0.5560408641940441,0,559.9156849403759,0,0.5146742754846302,0.6156354589595345
1,116,3,0.7918693615892345,0.4,0.2081306384107655,0.6,0.40406531920538274,1,0.29045237456072714,0.08436258188796494,1,589.3969733607112,1,0.3845126619572514,0.6156354589595345
1,117,3,0.8960065150570955,0.4,0.1039934849429045,0.6,0.35199674247145224,1,0.3394926638442154,0.11525526880404144,1,541.5369462129053,1,0.4339978048033218,0.6156354589595345
1,118,3,0.768312642091309,0.4,0.231687357908691,0.6,0.4158436789543455,5,0.4443315962505036,0.19743056742652057,1,604.7036078074179,5,0.4218577158178459,0.6156354589595345
1,119,3,0.8793576819812023,0.4,0.12064231801879766,0.6,0.3603211590093988,5,0.6076370077248007,0.36922273315674947,1,548.0858660092894,5,0.5141856889174993,0.6156354589595345
1,120,3,0.7447698131812641,0.4,0.2552301868187359,0.6,0.42761509340936793,1,0.4107012930218985,0.16867555208985935,1,547.5707571075034,1,0.40373206391681166,0.6156354589595345
1,121,3,0.7177405067514111,0.4,0.2822594932485889,0.6,0.44112974662429444,1,0.25082652960164786,0.06291394795200633,0,632.9033335666984,0,0.3495248697637637,0.6156354589595345
1,122,3,0.7257496796599288,0.4,0.27425032034007124,0.6,0.4371251601700356,2,0.4764904102897966,0.2270431110981387,0,585.5952111091275,0,0.4155396516011738,0.6156354589595345
1,123,3,0.8255800778981816,0.4,0.17441992210181845,0.6,0.3872099610509092,5,0.4351532220674755,0.18935832667570562,1,574.7309294647944,5,0.4397237994243207,0.6156354589595345
1,124,3,0.7005190048767292,0.4,0.29948099512327075,0.6,0.44974049756163537,10,0.7170426869330498,0.5141502148841677,1,601.0932660775508,10,0.4724095272886063,0.6156354589595345
1,125,3,0.7418698646673421,0.4,0.25813013533265794,0.6,0.42906506766632896,5,0.5494125429877067,0.30185414239221864,0,576.6062134805865,0,0.4423068726938137,0.6156354589595345
1,126,3,0.8062531507947068,0.4,0.19374684920529317,0.6,0.3968734246026466,2,0.5692216603337676,0.32401329859313116,0,512.7430690575901,0,0.47321964301822705,0.6156354589595345
1,127,3,0.8023354884231332,0.4,0.19766451157686682,0.6,0.3988322557884334,5,0.4394415197099891,0.19310884924502475,1,492.75094534614834,5,0.43267290566426175,0.6156354589595345
1,128,3,0.8474810412187639,0.4,0.1525189587812361,0.6,0.37625947939061805,10,0.6214860833031066,0.38624495173943596,1,496.65183530615496,10,0.5056932868801738,0.6156354589595345
1,129,3,0.878105456147979,0.4,0.12189454385202103,0.6,0.3609472719260105,10,0.4748345359178584,0.22546783650032795,0,541.2490279244927,0,0.4712485168180219,0.6156354589595345
1,130,3,0.79591642035085,0.4,0.20408357964915003,0.6,0.402041789824575,10,0.9128686771713379,0.8333292217605484,1,580.0523038646037,10,0.5719077652510031,0.6156354589595345
1,131,3,0.7863319092459359,0.4,0.21366809075406412,0.6,0.40683404537703205,5,0.4031880579496455,0.1625606100732067,0,524.9381329427827,0,0.416161691954625,0.6156354589595345
1,132,3,0.8215110444587146,0.4,0.1784889555412854,0.6,0.3892444777706427,5,0.4176671662798057,0.17444586178820287,1,603.1550885377408,5,0.4329240252443179,0.6156354589595345
1,133,3,0.7305718278368664,0.4,0.26942817216313364,0.6,0.4347140860815668,5,0.6711609528880251,0.4504570246815619,1,561.2327090066289,5,0.47234187327905347,0.6156354589595345
1,134,3,0.8611729773482287,0.4,0.13882702265177127,0.6,0.3694135113258856,10,0.438710614192511,0.19246700300517025,0,601.1851020562731,0,0.45361573721091697,0.6156354589595345
1,135,3,0.7224077804336104,0.4,0.2775922195663896,0.6,0.4387961097831948,2,0.5665418767816333,0.32096969814725534,1,582.2448482710679,2,0.4395746977186939,0.6156354589595345
1,136,3,0.8950134325890285,0.4,0.10498656741097145,0.6,0.3524932837054857,2,0.5313021902430084,0.2822820173570179,0,503.7400038474173,0,0.49576422642942397,0.6156354589595345
1,137,3,0.811352578602786,0.4,0.18864742139721402,0.6,0.394323710698607,10,0.8028381871431651,0.6445491547353238,1,533.7251360336239,10,0.5459681716998612,0.6156354589595345
1,138,3,0.8935988133008469,0.4,0.1064011866991531,0.6,0.35320059334957654,10,0.7236956779633634,0.5237354343028522,1,396.54286798555154,10,0.5574426708763014,0.6156354589595345
1,139,3,0.7229673649478406,0.4,0.27703263505215936,0.6,0.43851631752607967,2,0.4654280927035355,0.21662330947765085,1,591.9374841068924,2,0.4114069809459573,0.6156354589595345
1,140,3,0.8864028684513868,0.4,0.11359713154861317,0.6,0.3567985657743066,1,0.3897132860892709,0.15187644535449793,1,570.4381746891855,1,0.4469327893875602,0.6156354589595345
1,141,3,0.7268829353877948,0.4,0.2731170646122052,0.6,0.4365585323061026,5,0.4120466151034806,0.1697824130182359,0,601.2460213931397,0,0.39780280863305256,0.6156354589595345
1,142,3,0.7175736222485313,0.4,0.2824263777514687,0.6,0.44121318887573435,5,0.6621643552068524,0.43846163330650656,1,604.7294286071019,5,0.4643977598052291,0.6156354589595345
1,143,3,0.7943152377100317,0.4,0.20568476228996835,0.6,0.40284238114498416,5,0.5346352454043262,0.28583484562854405,0,575.3658600895988,0,0.4582095644783151,0.6156354589595345
1,144,3,0.8491949051097436,0.4,0.1508050948902564,0.6,0.3754025474451282,2,0.5198070736979781,0.2701993938664552,0,530.4407975279497,0,0.4746338133033158,0.6156354589595345
1,145,3,0.736246613233132,0.4,0.263753386766868,0.6,0.431876693383434,5,0.5709592123742289,0.3259944221949998,1,590.1249679387406,5,0.4462492711469016,0.6156354589595345
1,146,3,0.856302896350283,0.4,0.143697103649717,0.6,0.3718485518248585,5,0.5000782315169325,0.2500782376371028,1,590.9631683187963,5,0.47113815675168325,0.6156354589595345
1,147,3,0.7328531595861986,0.4,0.26714684041380143,0.6,0.4335734202069007,1,0.5298099762185683,0.2806986109007199,0,512.5348089927782,0,0.43326251628142315,0.6156354589595345
1,148,3,0.7632393164592989,0.4,0.23676068354070112,0.6,0.41838034177035055,2,0.6055941394985579,0.3667442617949988,1,544.5509199301719,2,0.4669225573353397,0.6156354589595345
1,149,3,0.7753888858849814,0.4,0.22461111411501855,0.6,0.41230555705750926,5,0.6256572020118891,0.39144693442934586,1,671.5484732093729,5,0.47769485187591265,0.6156354589595345
1,150,3,0.8154972541812251,0.4,0.1845027458187749,0.6,0.39225137290938744,1,0.4353996633959679,0.18957286688532216,1,615.2906943204697,1,0.43618108737761335,0.6156354589595345
1,151,4,0.4812944221929094,0.4,0.5187055778070906,0.6,0.5593527889035452,5,0.3090027170876901,0.09548267916757505,0,708.5296608349199,0,0.28840419830118613,0.6156354589595345
1,152,4,0.4461098273618603,0.4,0.5538901726381398,0.6,0.5769450863190699,2,0.5295800424712742,0.2804550213838766,0,599.3611259535535,0,0.32354817641787914,0.6156354589595345
1,153,4,0.4066922183952643,0.4,0.5933077816047356,0.6,0.5966538908023677,5,0.6164230255465071,0.37997734642390973,0,667.8486127385427,0,0.32598896908582425,0.6156354589595345
1,154,4,0.3286255971096939,0.4,0.6713744028903061,0.6,0.6356872014451531,10,0.7293777411607617,0.5319918893007751,0,637.8701103198159,0,0.31501722232036833,0.6156354589595345
1,155,4,0.3684163497431815,0.4,0.6315836502568185,0.6,0.6157918251284092,2,0.2737631312567718,0.07494625203551247,0,691.1516709150496,0,0.2446951039394434,0.6156354589595345
1,156,4,0.4207915744145025,0.4,0.5792084255854975,0.6,0.5896042127927488,5,0.4899912443756804,0.24009141956482777,1,646.7471640524992,5,0.3057430648337346,0.6156354589595345
1,157,4,0.4444505136786132,0.4,0.5555494863213868,0.6,0.5777747431606934,2,0.4985105432338674,0.24851276171532558,0,616.7263532290743,0,0.3163544994966642,0.6156354589595345
1,158,4,0.4432358149465904,0.4,0.5567641850534095,0.6,0.5783820925267047,5,0.42987604563025406,0.18479341460670426,0,604.8813044464152,0,0.3014306731524089,0.6156354589595345
1,159,4,0.4166783589532241,0.4,0.5833216410467759,0.6,0.591660820523388,10,0.42873924990015,0.18381734440494327,0,604.3711673674063,0,0.2917051064951287,0.6156354589595345
1,160,4,0.48237048176859293,0.4,0.517629518231407,0.6,0.5588147591157036,10,0.8549016528797024,0.7308568360964472,1,588.6153215455021,10,0.4091776162712056,0.6156354589595345
1,161,4,0.4744247817888303,0.4,0.5255752182111697,0.6,0.5627876091055848,10,0.7291735578522353,0.531694077470887,1,629.5401778912064,10,0.3780080527499891,0.6156354589595345
1,162,4,0.31378430787344375,0.4,0.6862156921265563,0.6,0.6431078460632782,5,0.5466394357400001,0.29881467270614565,0,643.2731823739684,0,0.2759917397923623,0.6156354589595345
1,163,4,0.39016787428082644,0.4,0.6098321257191736,0.6,0.6049160628595868,2,0.43479797359324335,0.18904927784079073,1,613.2255593519893,2,0.2834328162041526,0.6156354589595345
1,164,4,0.4674981578004984,0.4,0.5325018421995016,0.6,0.5662509210997508,1,0.4865861358491102,0.23676606760056873,0,675.9262386685616,0,0.3224026835652161,0.6156354589595345
1,165,4,0.37980054077402603,0.4,0.620199459225974,0.6,0.610099729612987,1,0.40683088464985034,0.16551136870497984,0,675.3855920050181,0,0.27426187115688866,0.6156354589595345
1,166,4,0.4207443063460278,0.4,0.5792556936539722,0.6,0.5896278468269861,5,0.6196424940609017,0.38395682044601454,0,498.88723594309914,0,0.33232808882914133,0.6156354589595345
1,167,4,0.36926919887319226,0.4,0.6307308011268078,0.6,0.6153654005634039,2,0.5822685613756224,0.339036677566437,0,624.4581780304719,0,0.3042976171529158,0.6156354589595345
1,168,4,0.30656933404868764,0.4,0.6934306659513123,0.6,0.6467153329756561,5,0.5032608171254741,0.25327145005379986,0,630.0523396927659,0,0.26553949861445814,0.6156354589595345
1,169,4,0.3837850899009096,0.4,0.6162149100990904,0.6,0.6081074550495451,10,0.6937373513142826,0.4812715126085564,1,578.1476999676676,10,0.33188152054209846,0.6156354589595345
1,170,4,0.34401944281621943,0.4,0.6559805571837806,0.6,0.6279902785918903,2,0.39731333070632197,0.15785788275695117,0,674.499215939341,0,0.25990707143794833,0.6156354589595345
1,171,4,0.3297325455506226,0.4,0.6702674544493774,0.6,0.6351337272246886,2,0.5104799567036816,0.26058978619619266,1,695.9745967456569,2,0.275561595952143,0.6156354589595345
1,172,4,0.3599191823532954,0.4,0.6400808176467045,0.6,0.6200404088233522,10,0.5862917985720844,0.34373807307288956,1,626.176688434297,10,0.3013633916361593,0.6156354589595345
1,173,4,0.4796108578881427,0.4,0.5203891421118573,0.6,0.5601945710559286,10,0.8354018076437685,0.697896180214476,1,555.838932635397,10,0.40360983964774577,0.6156354589595345
1,174,4,0.46731296265846656,0.4,0.5326870373415334,0.6,0.5663435186707667,5,0.6759609730934639,0.4569232371454627,0,469.33939043941496,0,0.3633956692184147,0.6156354589595345
1,175,4,0.3801526121750652,0.4,0.6198473878249349,0.6,0.6099236939124675,2,0.4622105998826998,0.2136386386439252,0,648.6708612915427,0,0.2851868547621393,0.6156354589595345
1,176,4,0.31510067276077786,0.4,0.6848993272392221,0.6,0.6424496636196111,5,0.3875758256755665,0.15021502064809708,0,615.0864821387829,0,0.24806410161179737,0.6156354589595345
1,177,4,0.3817468342196193,0.4,0.6182531657803807,0.6,0.6091265828901904,5,0.5064877555439609,0.25652984651595906,0,683.3035284016305,0,0.29442300842177777,0.6156354589595345
1,178,4,0.3507777128086609,0.4,0.6492222871913391,0.6,0.6246111435956696,5,0.5402585212796351,0.29187926981525797,1,626.8402336513769,5,0.2890979424350936,0.6156354589595345
1,179,4,0.4305492215703749,0.4,0.5694507784296251,0.6,0.5847253892148125,5,0.6211796529249124,0.3858641612079146,0,644.4696234177701,0,0.3366173746906292,0.6156354589595345
1,180,4,0.4206394804353959,0.4,0.5793605195646041,0.6,0.5896802597823021,2,0.46045763163232684,0.2120212305284516,0,688.8248049396703,0,0.29962729800516535,0.6156354589595345
1,181,4,0.3409968590831642,0.4,0.6590031409168358,0.6,0.6295015704584179,5,0.46947640602264773,0.22040809581194198,0,629.0467169728996,0,0.2722193503398996,0.6156354589595345
1,182,4,0.44718092263920045,0.4,0.5528190773607995,0.6,0.5764095386803998,1,0.31530241191755903,0.09941561096103008,0,729.6269671255,0,0.27857477771947087,0.6156354589595345
1,183,4,0.4634887123476882,0.4,0.5365112876523118,0.6,0.5682556438261559,10,0.706915783339225,0.4997299247341101,1,574.4132505185252,10,0.36847562796038325,0.6156354589595345
1,184,4,0.3068456221641058,0.4,0.6931543778358942,0.6,0.646577188917947,10,0.4458349609122578,0.19876881237163446,0,737.1293696833765,0,0.2554955281231602,0.6156354589595345
1,185,4,0.3872253058270633,0.4,0.6127746941729366,0.6,0.6063873470864682,10,0.5550658809796709,0.3080981322277382,0,639.2832777571062,0,0.30604680343386337,0.6156354589595345
1,186,4,0.49707346244834694,0.4,0.5029265375516531,0.6,0.5514632687758265,5,0.5052470710272088,0.2552746027815734,1,682.216483903263,5,0.33757930046165274,0.6156354589595345
1,187,4,0.3537354718769892,0.4,0.6462645281230108,0.6,0.6231322640615053,10,0.5041845354371188,0.25420204577394334,1,717.5596268481034,10,0.2834393101519417,0.6156354589595345
1,188,4,0.4290108335538659,0.4,0.5709891664461342,0.6,0.5854945832230671,2,0.4981268674350021,0.24813037606060817,1,643.2147734915035,2,0.3104908507854332,0.6156354589595345
1,189,4,0.3544614653038738,0.4,0.6455385346961262,0.6,0.6227692673480631,5,0.5426610516909506,0.29448101702232854,0,698.1692725228061,0,0.2909695793814923,0.6156354589595345
1,190,4,0.39961815070220114,0.4,0.6003818492977988,0.6,0.6001909246488994,2,0.6977915943909738,0.4869131092026973,0,646.157696945225,0,0.339396243746163,0.6156354589595345
1,191,4,0.3412842543521206,0.4,0.6587157456478794,0.6,0.6293578728239397,2,0.4566994617826519,0.20857439839256395,0,610.8269475777669,0,0.2699570935856721,0.6156354589595345
1,192,4,0.44643691569181243,0.4,0.5535630843081876,0.6,0.5767815421540938,2,0.6622672663917681,0.4385979321340252,1,657.5262392579579,2,0.3517510945050271,0.6156354589595345
1,193,4,0.48288238918499193,0.4,0.5171176108150081,0.6,0.558558805407504,2,0.6349307356047839,0.40313703901563197,0,579.2992012382987,0,0.360862888500682,0.6156354589595345
1,194,4,0.3707742753122499,0.4,0.6292257246877502,0.6,0.6146128623438751,2,0.4633658455434771,0.21470790681622148,0,647.9751922936294,0,0.2819811872788678,0.6156354589595345
1,195,4,0.3490698219362642,0.4,0.6509301780637358,0.6,0.6254650890318678,1,0.4658965066428149,0.21705955490197848,0,701.429484566792,0,0.2745147088019813,0.6156354589595345
1,196,4,0.4443065722243811,0.4,0.5556934277756189,0.6,0.5778467138878094,10,0.5074824170348687,0.25753840359955243,0,754.2248757047255,0,0.3181943280538088,0.6156354589595345
1,197,4,0.4873659478649516,0.4,0.5126340521350484,0.6,0.5563170260675242,1,0.3042962968564248,0.0925962362805334,0,630.2707791975869,0,0.2893470299391869,0.6156354589595345
1,198,4,0.33240277557831693,0.4,0.667597224421683,0.6,0.6337986122108414,10,0.5786513116217045,0.3348373404415189,0,599.3360112120142,0,0.2890521505755218,0.6156354589595345
1,199,4,0.3668487781633922,0.4,0.6331512218366078,0.6,0.6165756109183038,2,0.28635838882619746,0.0820011268511357,0,638.7935790441944,0,0.24661058968789987,0.6156354589595345
1,200,4,0.38255871012135045,0.4,0.6174412898786495,0.6,0.6087206449393248,1,0.42361251578944786,0.17944756353346522,1,730.877369802699,1,0.2785150935172003,0.6156354589595345
2,1,1,0.7721947793880053,0.9,0.2278052206119947,0.09999999999999998,0.16390261030599734,10,0.8584337518082708,0.7369085062436238,1,513.834480932403,10,0.7769158044030636,0.49438565601137713
2,2,1,0.7173410423724367,0.9,0.2826589576275633,0.09999999999999998,0.19132947881378165,10,0.8176915295292619,0.6686194374639038,0,506.1589779553994,0,0.7349567782701014,0.49438565601137713
2,3,1,0.8317566733421435,0.9,0.16824332665785646,0.09999999999999998,0.13412166332892822,2,0.6098641846922688,0.3719343237703657,0,479.8175044782626,0,0.6969732612538364,0.49438565601137713
2,4,1,0.8293329838234327,0.9,0.17066701617656732,0.09999999999999998,0.13533350808828365,5,0.7624127713379677,0.5812732338992402,1,471.0511580049883,5,0.7619496341466032,0.49438565601137713
2,5,1,0.8394840534493679,0.9,0.16051594655063206,0.09999999999999998,0.13025797327531602,1,0.5613181116977839,0.3150780225199658,1,475.24374501447977,1,0.6789719894149936,0.49438565601137713
2,6,1,0.8590683675918195,0.9,0.14093163240818052,0.09999999999999998,0.12046581620409025,5,0.6856513309707553,0.4701177476619682,1,469.0624187389388,5,0.7412939837749261,0.49438565601137713
2,7,1,0.8657830948301355,0.9,0.1342169051698645,0.09999999999999998,0.11710845258493224,1,0.45202788284391016,0.20432920686834777,1,560.6317705412271,1,0.6409915721869424,0.49438565601137713
2,8,1,0.7962123767688173,0.9,0.2037876232311827,0.09999999999999998,0.15189381161559135,5,0.5738038723501363,0.32925088392401153,0,552.084097711572,0,0.6673764017217483,0.49438565601137713
2,9,1,0.7130712681597884,0.9,0.2869287318402116,0.09999999999999998,0.1934643659201058,5,0.6892888667396853,0.47511914181127957,0,558.5399791742723,0,0.681235833639999,0.49438565601137713
2,10,1,0.8475711533813051,0.9,0.15242884661869494,0.09999999999999998,0.12621442330934746,1,0.6069440080757667,0.3683810289390763,1,521.6514659663994,1,0.7020622484030362,0.49438565601137713
2,11,1,0.7048801563113075,0.9,0.2951198436886925,0.09999999999999998,0.19755992184434623,2,0.5639197466148147,0.3180054806221168,0,443.5592471307539,0,0.6274759418513811,0.49438565601137713
2,12,1,0.7140059411494941,0.9,0.2859940588505059,0.09999999999999998,0.19299702942525293,2,0.7298742071759454,0.532716358300715,1,450.7400986034752,2,0.6980068119558116,0.49438565601137713
2,13,1,0.7959751240607817,0.9,0.20402487593921825,0.09999999999999998,0.15201243796960912,1,0.4219764520112501,0.17806412605200286,1,531.7987598783213,1,0.6029091724028226,0.49438565601137713
2,14,1,0.718339867022286,0.9,0.281660132977714,0.09999999999999998,0.19083006648885698,5,0.8301035556563854,0.6890719131133737,1,448.09566302335514,5,0.7404323862244919,0.49438565601137713
2,15,1,0.7220948226262789,0.9,0.2779051773737211,0.09999999999999998,0.18895258868686055,2,0.6860600829780321,0.47067843745582433,0,465.4633600265299,0,0.6837373328088749,0.49438565601137713
2,16,1,0.817821706894179,0.9,0.182178293105821,0.09999999999999998,0.1410891465529105,10,0.6089966837875262,0.37087696086420424,0,421.0572840048018,0,0.6909923574327405,0.49438565601137713
2,17,1,0.7436507775730128,0.9,0.2563492224269872,0.09999999999999998,0.1781746112134936,2,0.5422822194108851,0.29407000548919526,0,539.3170280249678,0,0.6337433422929333,0.49438565601137713
2,18,1,0.8964661030160164,0.9,0.10353389698398363,0.09999999999999998,0.1017669484919918,5,0.6807094471119407,0.463365351387444,1,496.20011444473363,5,0.7548343876888478,0.49438565601137713
2,19,1,0.7334067892184151,0.9,0.26659321078158493,0.09999999999999998,0.18329660539079246,10,0.7683811512875229,0.5904095936539392,0,445.18019591593537,0,0.7221214446097293,0.49438565601137713
2,20,1,0.7461138391610038,0.9,0.2538861608389962,0.09999999999999998,0.17694308041949808,5,0.5172567451230112,0.2675545403752518,1,505.0553978172267,5,0.6243943314268422,0.49438565601137713
2,21,1,0.744097241814035,0.9,0.255902758185965,0.09999999999999998,0.17795137909298248,1,0.6363354520880364,0.4049228075840857,1,549.4609666466446,1,0.6725736508651157,0.49438565601137713
2,22,1,0.8036520733352784,0.9,0.19634792666472156,0.09999999999999998,0.14817396333236077,10,0.9412148381669663,0.8858853715856685,1,421.7933904955378,10,0.8267886709580898,0.49438565601137713
2,23,1,0.7307791812679709,0.9,0.2692208187320291,0.09999999999999998,0.18461040936601453,10,1.0,1.0,0,422.08619867003455,0,0.8153895906339854,0.49438565601137713
2,24,1,0.706973032046765,0.9,0.293026967953235,0.09999999999999998,0.1965134839766175,10,0.6933192028105888,0.48069151698591034,0,497.8570162837834,0,0.6802795733908857,0.49438565601137713
2,25,1,0.7531200085177412,0.9,0.2468799914822588,0.09999999999999998,0.1734399957411294,10,0.7272893652647108,0.5289498208271459,0,477.75552979927096,0,0.7138541525547506,0.49438565601137713
2,26,1,0.707084473683709,0.9,0.29291552631629103,0.09999999999999998,0.1964577631581455,5,0.7371471351027145,0.5433858987901395,1,585.7328423754898,5,0.6979355473319273,0.49438565601137713
2,27,1,0.7816906426141397,0.9,0.21830935738586033,0.09999999999999998,0.15915467869293015,5,0.6815102166566259,0.4644561754073612,0,448.0457754485191,0,0.7069449992028807,0.49438565601137713
2,28,1,0.7218937720108908,0.9,0.2781062279891092,0.09999999999999998,0.1890531139945546,10,0.4326190598098511,0.18715925091075952,0,469.9428661102057,0,0.5808889826924238,0.49438565601137713
2,29,1,0.8649361931850299,0.9,0.1350638068149701,0.09999999999999998,0.11753190340748504,10,0.8674716952854953,0.7525071421214912,0,549.3567787030418,0,0.823992096189494,0.49438565601137713
2,30,1,0.8467819837907403,0.9,0.15321801620925968,0.09999999999999998,0.12660900810462983,10,0.8679704482127151,0.7533726989705815,0,506.6208366392628,0,0.8157342812978712,0.49438565601137713
2,31,1,0.8734588401919605,0.9,0.12654115980803948,0.09999999999999998,0.11327057990401973,1,0.46220621036501297,0.21363458089998663,0,450.6348353918575,0,0.6482906324888545,0.49438565601137713
2,32,1,0.7211668187657168,0.9,0.27883318123428324,0.09999999999999998,0.1894165906171416,5,0.6074416106956325,0.3689853104045044,0,520.1089214861166,0,0.6514827505907695,0.49438565601137713
2,33,1,0.8743687055490464,0.9,0.12563129445095356,0.09999999999999998,0.11281564722547677,5,0.6297899914697117,0.39663543335541956,0,502.8102473175106,0,0.722962089370226,0.49438565601137713
2,34,1,0.7002240222960219,0.9,0.2997759777039781,0.09999999999999998,0.19988798885198905,2,0.6106267167280934,0.37286498718213124,1,562.8263181131523,2,0.6443408907650162,0.49438565601137713
2,35,1,0.7574076266349825,0.9,0.2425923733650175,0.09999999999999998,0.17129618668250873,2,0.6721961070092654,0.4518476062784117,1,389.5419460386279,2,0.692877645246621,0.49438565601137713
2,36,1,0.7753390723973598,0.9,0.22466092760264023,0.09999999999999998,0.1623304638013201,10,0.9422835188696979,0.8878982299334602,1,465.15230847485174,10,0.8134958672089598,0.49438565601137713
2,37,1,0.8522055805004056,0.9,0.14779441949959438,0.09999999999999998,0.12389720974979718,2,0.7242392437952277,0.5245224822530833,1,452.9275968491985,2,0.7553054062739494,0.49438565601137713
2,38,1,0.7358994646847666,0.9,0.26410053531523336,0.09999999999999998,0.18205026765761667,1,0.5405268015340122,0.29216922317658944,1,510.2668997887991,1,0.6300367424905067,0.49438565601137713
2,39,1,0.8416344177290563,0.9,0.15836558227094366,0.09999999999999998,0.12918279113547182,2,0.5823511008034289,0.3391328046069654,1,572.860029264647,2,0.6889692845226778,0.49438565601137713
2,40,1,0.7149388835515708,0.9,0.28506111644842924,0.09999999999999998,0.1925305582242146,2,0.6442541303385103,0.4150633844582302,1,467.0434850677656,2,0.6638424823809832,0.49438565601137713
2,41,1,0.7044247103057995,0.9,0.29557528969420055,0.09999999999999998,0.19778764484710026,2,0.7213532389010424,0.5203504952730243,1,464.3526033851546,2,0.6904454179144386,0.49438565601137713
2,42,1,0.7002058959691266,0.9,0.29979410403087337,0.09999999999999998,0.19989705201543667,2,0.4629511010227756,0.21432372193820018,1,403.73370767134935,2,0.5852557443427928,0.49438565601137713
2,43,1,0.8589619097499859,0.9,0.14103809025001413,0.09999999999999998,0.12051904512500705,1,0.663144562056762,0.43976071018545465,0,445.1060888859368,0,0.7313519837664164,0.49438565601137713
2,44,1,0.7460107366062868,0.9,0.2539892633937132,0.09999999999999998,0.17699463169685659,5,0.6520036815236041,0.42510880072033336,0,430.5500899200247,0,0.6798039491752413,0.49438565601137713
2,45,1,0.7839454633852244,0.9,0.21605453661477558,0.09999999999999998,0.15802726830738778,5,0.4924447672212283,0.24250184876356976,1,469.83023314458825,5,0.6282988987788012,0.49438565601137713
2,46,1,0.8448845345228234,0.9,0.15511546547717658,0.09999999999999998,0.12755773273858828,2,0.480550210413747,0.23092850472869653,0,562.4005289838648,0,0.6458472911838647,0.49438565601137713
2,47,1,0.7946419813383114,0.9,0.20535801866168857,0.09999999999999998,0.15267900933084427,10,0.7552375428804324,0.570383746176073,1,446.191285361968,10,0.7436248068465713,0.49438565601137713
2,48,1,0.7307316076322226,0.9,0.26926839236777744,0.09999999999999998,0.1846341961838887,5,0.7190790599354341,0.5170746944376277,1,513.8580692190984,5,0.7008391397638501,0.49438565601137713
2,49,1,0.7262489755364775,0.9,0.2737510244635225,0.09999999999999998,0.18687551223176124,1,0.5694337332796303,0.32425477659677715,1,432.05554679065096,1,0.638072500229597,0.49438565601137713
2,50,1,0.8196654530244853,0.9,0.18033454697551465,0.09999999999999998,0.14016727348775732,2,0.5384219705595482,0.289898218381227,1,578.2550066359131,2,0.6613927787362769,0.49438565601137713
2,51,2,0.3983189093482874,0.9,0.6016810906517126,0.09999999999999998,0.3508405453258563,5,0.5152297836514252,0.2654617299614945,0,611.4583993255828,0,0.49181287003059,0.49438565601137713
2,52,2,0.38664934979433113,0.9,0.6133506502056689,0.09999999999999998,0.35667532510283445,10,0.6772977370815072,0.45873222465573044,1,538.0033715034754,10,0.539523510706856,0.49438565601137713
2,53,2,0.37849871128133694,0.9,0.6215012887186631,0.09999999999999998,0.3607506443593315,2,0.7338226735021249,0.5384957161458063,0,571.9471553837769,0,0.5541725134157072,0.49438565601137713
2,54,2,0.48156373059692803,0.9,0.518436269403072,0.09999999999999998,0.309218134701536,5,0.5574911151367625,0.31079634345643103,1,534.6307610896856,5,0.5379433088499789,0.49438565601137713
2,55,2,0.4973325186534293,0.9,0.5026674813465707,0.09999999999999998,0.30133374067328533,10,0.7285808351276898,0.5308300333153619,1,498.38291278991295,10,0.6038505530112557,0.49438565601137713
2,56,2,0.3692033135289679,0.9,0.6307966864710322,0.09999999999999998,0.36539834323551607,10,0.6134157038966952,0.37627882578707805,0,550.1609442393822,0,0.5119381393713394,0.49438565601137713
2,57,2,0.3066406217582733,0.9,0.6933593782417267,0.09999999999999998,0.3966796891208633,10,0.5483810912078657,0.30072182119432955,0,508.79982194815676,0,0.46708488065345327,0.49438565601137713
2,58,2,0.3401718179724588,0.9,0.6598281820275411,0.09999999999999998,0.37991409101377055,2,0.5557318999818452,0.30883794465743164,1,587.0301763737547,2,0.4823437146695581,0.49438565601137713
2,59,2,0.32091356806688004,0.9,0.67908643193312,0.09999999999999998,0.38954321596656,5,0.8121742963221357,0.6596270876063562,0,604.8027852013682,0,0.5531270465204365,0.49438565601137713
2,60,2,0.35976717726746277,0.9,0.6402328227325372,0.09999999999999998,0.3701164113662686,10,0.7382428085164081,0.545002444326194,0,571.2828965761041,0,0.5474453090725455,0.49438565601137713
2,61,2,0.3678900385085612,0.9,0.6321099614914387,0.09999999999999998,0.36605498074571935,5,0.8571430442532457,0.7346941983117216,0,513.8394583176869,0,0.5886632914735386,0.49438565601137713
2,62,2,0.419495172526386,0.9,0.580504827473614,0.09999999999999998,0.340252413736807,2,0.8192528381941622,0.67117521288919,0,485.6910493971475,0,0.6001238344005309,0.49438565601137713
2,63,2,0.44631790435106633,0.9,0.5536820956489337,0.09999999999999998,0.3268410478244668,5,0.7165437676483084,0.513434970955633,0,604.7655876804796,0,0.5777534019967886,0.49438565601137713
2,64,2,0.3958557857152575,0.9,0.6041442142847425,0.09999999999999998,0.35207210714237125,5,0.5445308298137743,0.29651382461767767,0,524.703637284023,0,0.5003723030074418,0.49438565601137713
2,65,2,0.4317415551001752,0.9,0.5682584448998248,0.09999999999999998,0.3341292224499124,5,0.5192880074451909,0.2696600346763966,0,608.232213632039,0,0.5058247434200263,0.49438565601137713
2,66,2,0.39865536935675994,0.9,0.6013446306432401,0.09999999999999998,0.35067231532162,10,0.7690508836242966,0.5914392616033114,1,477.1569779741361,10,0.5743468571710034,0.49438565601137713
2,67,2,0.3061305004411612,0.9,0.6938694995588388,0.09999999999999998,0.3969347497794194,1,0.5704855630277765,0.32545377762311917,0,579.6196024607339,0,0.4735526345175778,0.49438565601137713
2,68,2,0.38318147322938817,0.9,0.6168185267706119,0.09999999999999998,0.35840926338530593,10,0.5177712755253314,0.26808709375912865,0,510.66561416128013,0,0.48689399533846056,0.49438565601137713
2,69,2,0.4975299127472116,0.9,0.5024700872527884,0.09999999999999998,0.3012350436263942,10,0.8252584720725744,0.6810515457275601,0,655.155307213822,0,0.6377133283041734,0.49438565601137713
2,70,2,0.30587888915130146,0.9,0.6941211108486985,0.09999999999999998,0.39706055542434926,2,0.721203396390755,0.5201343389655605,0,545.0724035131939,0,0.5188907099107827,0.49438565601137713
2,71,2,0.38434418537469106,0.9,0.6156558146253089,0.09999999999999998,0.35782790731265446,2,0.4845023666865913,0.23474254332490818,0,481.45914439952656,0,0.47665299570722275,0.49438565601137713
2,72,2,0.4671996127562419,0.9,0.5328003872437581,0.09999999999999998,0.31640019362187904,1,0.6371979208652332,0.40602119035497597,0,496.91975194595,0,0.5595940908530679,0.49438565601137713
2,73,2,0.33593662177404837,0.9,0.6640633782259516,0.09999999999999998,0.3820316891129758,10,0.7165986404780618,0.5135136115350064,0,426.7156790617631,0,0.5304017811635949,0.49438565601137713
2,74,2,0.3138265572373239,0.9,0.6861734427626761,0.09999999999999998,0.39308672138133804,1,0.65816800991004,0.4331851292689425,0,533.578498819092,0,0.5031820916975421,0.49438565601137713
2,75,2,0.402963470785938,0.9,0.597036529214062,0.09999999999999998,0.348518264607031,1,0.5312981414562866,0.28227771511490435,0,565.2019091099072,0,0.49880638529998483,0.49438565601137713
2,76,2,0.3624296113392894,0.9,0.6375703886607106,0.09999999999999998,0.3687851943303553,10,0.7802470956984189,0.6087855303458176,0,470.3225457742798,0,0.5618591622776135,0.49438565601137713
2,77,2,0.4546946251373201,0.9,0.5453053748626799,0.09999999999999998,0.32265268743133996,10,0.5797266495923756,0.3360829882476011,1,511.19174152485425,10,0.5350118003472444,0.49438565601137713
2,78,2,0.47674193393215053,0.9,0.5232580660678494,0.09999999999999998,0.3116290330339247,2,0.6185984490681898,0.38266404118956987,1,467.47925379392984,2,0.5570980897574298,0.49438565601137713
2,79,2,0.4657766731765219,0.9,0.5342233268234782,0.09999999999999998,0.3171116634117391,1,0.8160732330472505,0.6659755216961921,0,450.53017740013894,0,0.6200876146190512,0.49438565601137713
2,80,2,0.35050555641508385,0.9,0.6494944435849161,0.09999999999999998,0.37474722179245806,2,0.6974113964563349,0.4863826559071751,0,603.808072636448,0,0.5306555956977334,0.49438565601137713
2,81,2,0.46883408979383945,0.9,0.5311659102061606,0.09999999999999998,0.31558295510308026,10,0.8330267707351716,0.6939336007614682,0,503.31178602891356,0,0.6272773828217549,0.49438565601137713
2,82,2,0.4079811679004425,0.9,0.5920188320995575,0.09999999999999998,0.34600941604977875,10,0.7026451188183261,0.49371016299921966,0,531.6772011076089,0,0.5567569377579955,0.49438565601137713
2,83,2,0.4873211384589923,0.9,0.5126788615410077,0.09999999999999998,0.30633943077050385,1,0.47241268248978807,0.22317374257719733,1,576.1230095768516,1,0.5106773097382978,0.49438565601137713
2,84,2,0.31771111684464826,0.9,0.6822888831553517,0.09999999999999998,0.39114444157767586,1,0.5447601070356696,0.29676357421751415,1,563.3319093962814,1,0.4702678887988659,0.49438565601137713
2,85,2,0.4973260245917694,0.9,0.5026739754082306,0.09999999999999998,0.30133698770411527,10,0.5755366300684961,0.33124241255060094,0,558.0188874344789,0,0.5503845839730813,0.49438565601137713
2,86,2,0.36853069762418306,0.9,0.6314693023758169,0.09999999999999998,0.36573465118790843,2,0.7232665799149253,0.523114545621833,1,485.3984410086035,2,0.54650413920298,0.49438565601137713
2,87,2,0.43468648666498344,0.9,0.5653135133350166,0.09999999999999998,0.33265675666750827,2,0.6715110954015224,0.45092715124735255,1,492.1422632496257,2,0.557735817835749,0.49438565601137713
2,88,2,0.34691225866696573,0.9,0.6530877413330343,0.09999999999999998,0.3765438706665171,5,0.6986980659083388,0.4881789873040534,0,497.2353643493194,0,0.5295318605387432,0.49438565601137713
2,89,2,0.48892284389480467,0.9,0.5110771561051953,0.09999999999999998,0.30553857805259765,2,0.6291209179478223,0.3957931293995106,0,537.0879626008231,0,0.565680814601151,0.49438565601137713
2,90,2,0.3226219638153146,0.9,0.6773780361846854,0.09999999999999998,0.3886890180923427,1,0.7139722015160928,0.5097563045377361,1,604.5610005541125,1,0.5238850147356159,0.49438565601137713
2,91,2,0.4317770940465314,0.9,0.5682229059534686,0.09999999999999998,0.3341114529767343,1,0.682518039298907,0.4658308739684243,1,622.7502662044749,1,0.5601847462645916,0.49438565601137713
2,92,2,0.331857489048561,0.9,0.668142510951439,0.09999999999999998,0.38407125547571946,10,0.793127566668048,0.6290513370087789,0,523.2896178026886,0,0.5522194054548644,0.49438565601137713
2,93,2,0.41340325219733354,0.9,0.5865967478026665,0.09999999999999998,0.3432983739013332,1,0.6296507862740321,0.3964601126555069,0,500.7567764173941,0,0.5350971606595639,0.49438565601137713
2,94,2,0.4851349661761424,0.9,0.5148650338238576,0.09999999999999998,0.3074325169119288,5,0.7141995866248618,0.5100810495351236,0,555.8684335266374,0,0.5935994466096963,0.49438565601137713
2,95,2,0.3871166629625866,0.9,0.6128833370374134,0.09999999999999998,0.3564416685187067,5,0.5001177045645252,0.2501177184188897,0,511.96264874905756,0,0.48270662348754684,0.49438565601137713
2,96,2,0.3656762455770162,0.9,0.6343237544229838,0.09999999999999998,0.3671618772114919,1,0.47371616542957934,0.22440700538930458,0,480.58991084108675,0,0.4663118858267667,0.49438565601137713
2,97,2,0.3777116202540691,0.9,0.6222883797459309,0.09999999999999998,0.3611441898729654,1,0.7073435394613716,0.500334882817741,0,649.9153513125531,0,0.5453731700338765,0.49438565601137713
2,98,2,0.30293341140925273,0.9,0.6970665885907472,0.09999999999999998,0.3985332942953736,5,0.8048425377154376,0.6477715105162255,0,589.5665889842,0,0.542776347737641,0.49438565601137713
2,99,2,0.3926988087601145,0.9,0.6073011912398856,0.09999999999999998,0.3536505956199428,5,0.7096887096282947,0.503658064573874,0,538.0463813282868,0,0.5525281395717785,0.49438565601137713
2,100,2,0.482847303190294,0.9,0.517152696809706,0.09999999999999998,0.308576348404853,1,0.48066997946886725,0.23104362916260127,0,467.8661139614519,0,0.5118851220058378,0.49438565601137713
2,101,3,0.8160344738454665,0.4,0.18396552615453354,0.6,0.39198276307726676,10,0.5973946290207578,0.35688034278284886,1,531.2001697778786,10,0.4856217343062078,0.49438565601137713
2,102,3,0.8493751432271646,0.4,0.15062485677283544,0.6,0.3753124283864177,10,0.9224623930295732,0.8509368665538468,1,534.4070604114368,10,0.6004691819100401,0.49438565601137713
2,103,3,0.8854069089592613,0.4,0.11459309104073867,0.6,0.3572965455203693,5,0.7122074062443224,0.5072393895092653,1,465.49265715801886,5,0.5502208073894171,0.49438565601137713
2,104,3,0.7332663215486284,0.4,0.26673367845137164,0.6,0.4333668392256858,10,0.7332900063172979,0.5377142333648228,1,507.4674323713508,10,0.4910697974090508,0.49438565601137713
2,105,3,0.8606051795665327,0.4,0.1393948204334673,0.6,0.36969741021673364,5,0.6371221645987347,0.4059246526229772,0,555.3708805635192,0,0.5159411700690847,0.49438565601137713
2,106,3,0.7799810413608312,0.4,0.22001895863916876,0.6,0.41000947931958437,1,0.5220538002559175,0.2725401703616454,1,559.5658062704322,1,0.4489986570582971,0.49438565601137713
2,107,3,0.8362235707929966,0.4,0.16377642920700342,0.6,0.3818882146035017,2,0.5888734793313954,0.3467719746598634,1,581.3561518560867,2,0.4910507115393376,0.49438565601137713
2,108,3,0.8586814516295674,0.4,0.14131854837043256,0.6,0.37065927418521627,1,0.7565687691299868,0.5723963024228633,1,531.7836970020654,1,0.5527401320539236,0.49438565601137713
2,109,3,0.7086825065709638,0.4,0.29131749342903623,0.6,0.4456587467145181,2,0.6694611843811132,0.4481782773929629,0,679.2742439670576,0,0.4627256026306456,0.49438565601137713
2,110,3,0.8587487700761033,0.4,0.14125122992389672,0.6,0.37062561496194835,5,0.5796136514153557,0.3359519849070415,0,640.705156506396,0,0.49708418522862535,0.49438565601137713
2,111,3,0.8800046246796023,0.4,0.11999537532039772,0.6,0.35999768766019885,10,0.6916658825731392,0.4784016931156796,1,557.5863137748846,10,0.5413350382765798,0.49438565601137713
2,112,3,0.8463916135171269,0.4,0.15360838648287312,0.6,0.37680419324143655,10,1.0,1.0,1,471.6315589091427,10,0.6231958067585635,0.49438565601137713
2,113,3,0.8247718649353146,0.4,0.17522813506468538,0.6,0.3876140675323427,1,0.5041120188829414,0.2541289275822351,1,553.357082784759,1,0.46054852060972035,0.49438565601137713
2,114,3,0.8738519249302106,0.4,0.12614807506978942,0.6,0.3630740375348947,1,0.5976286374759867,0.35715998833140433,1,542.6683125261985,1,0.5087855787931038,0.49438565601137713
2,115,3,0.8283943000886532,0.4,0.17160569991134678,0.6,0.3858028499556734,10,0.8977052505553332,0.8058747168746137,1,466.4730772628838,10,0.5827825782576201,0.49438565601137713
2,116,3,0.8264030972040837,0.4,0.17359690279591633,0.6,0.38679845139795815,1,0.6496909909108113,0.4220983836706719,1,550.9662464572971,1,0.5057965351706732,0.49438565601137713
2,117,3,0.8390289108095188,0.4,0.1609710891904812,0.6,0.3804855445952406,5,0.5315585420438174,0.2825544836197488,0,462.2829367573961,0,0.4744113280473914,0.49438565601137713
2,118,3,0.7031642183531165,0.4,0.2968357816468835,0.6,0.44841789082344174,10,0.8704472521086929,0.7576784187035743,1,628.9004731925902,10,0.5158526202108052,0.49438565601137713
2,119,3,0.7158838737977973,0.4,0.2841161262022027,0.6,0.44205806310110135,10,0.9294919094048311,0.8639552096490387,1,625.4533197095667,10,0.5382722265820429,0.49438565601137713
2,120,3,0.7733912158409602,0.4,0.22660878415903984,0.6,0.4133043920795199,2,0.5851388606450055,0.3423874862369352,1,555.600670274507,2,0.46499700374224945,0.49438565601137713
2,121,3,0.7135225127184429,0.4,0.2864774872815571,0.6,0.44323874364077853,1,0.6428539598004123,0.41326121363107005,1,538.5918665521307,1,0.4573387173365997,0.49438565601137713
2,122,3,0.8185623983306846,0.4,0.18143760166931544,0.6,0.3907188008346577,5,0.5174527934400781,0.2677573934389401,1,584.173189398768,5,0.46227772883198465,0.49438565601137713
2,123,3,0.833897391039638,0.4,0.166102608960362,0.6,0.383051304480181,5,0.5680306509187216,0.3226588203831466,0,491.6301611402167,0,0.483697232309699,0.49438565601137713
2,124,3,0.7892704702395285,0.4,0.21072952976047155,0.6,0.40536476488023576,10,0.8426387372616062,0.7100400415338343,0,503.3011916359559,0,0.5478489593861704,0.49438565601137713
2,125,3,0.7350605884715319,0.4,0.2649394115284681,0.6,0.43246970576423405,5,0.6428947734777143,0.4133136897649616,1,591.5903319047934,5,0.46619627709510464,0.49438565601137713
2,126,3,0.7845378226792379,0.4,0.21546217732076212,0.6,0.40773108866038105,5,0.6406928664136224,0.41048734907330386,0,620.0546987172739,0,0.4858656889167375,0.49438565601137713
2,127,3,0.8590899921579458,0.4,0.1409100078420542,0.6,0.3704550039210271,10,0.7574436658577156,0.5737209069479747,0,521.2831056392741,0,0.5531949328657056,0.49438565601137713
2,128,3,0.7040052711851649,0.4,0.29599472881483513,0.6,0.44799736440741755,10,0.8210385649686988,0.6741043251658602,0,591.2992618111846,0,0.5026090436892279,0.49438565601137713
2,129,3,0.8041915954544084,0.4,0.19580840454559156,0.6,0.39790420227279577,2,0.7246888591543029,0.525173942582365,0,512.5864209839526,0,0.5192139572418659,0.49438565601137713
2,130,3,0.8216972825319583,0.4,0.17830271746804172,0.6,0.38915135873402085,10,0.9111295741087125,0.8301571008155239,1,573.4675660490642,10,0.5837054518137682,0.49438565601137713
2,131,3,0.7606256711890657,0.4,0.23937432881093434,0.6,0.41968716440546716,2,0.5283010342136186,0.27910198275117903,1,496.1836796038347,2,0.44344635340328104,0.49438565601137713
2,132,3,0.747811066439453,0.4,0.25218893356054695,0.6,0.42609446678027346,1,0.5369132265514902,0.28827581284593184,1,494.0860524938453,1,0.4410215023982416,0.49438565601137713
2,133,3,0.8201188666721234,0.4,0.17988113332787659,0.6,0.3899405666639383,5,0.7618454999470267,0.580408565789535,1,514.2722388575709,5,0.5374152336616866,0.49438565601137713
2,134,3,0.8133150724342837,0.4,0.1866849275657163,0.6,0.39334246378285814,10,0.8466085859310023,0.7167460977720913,1,528.3973978822,10,0.560129507549161,0.49438565601137713
2,135,3,0.8755948640890139,0.4,0.12440513591098612,0.6,0.36220256795549305,2,0.5720419950431657,0.3272320440929652,1,573.1549420055837,2,0.5013221737523273,0.49438565601137713
2,136,3,0.863747000814854,0.4,0.136252999185146,0.6,0.368126499592573,5,0.6014619743045302,0.36175650653430336,0,532.6409496110407,0,0.5059606917365962,0.49438565601137713
2,137,3,0.7692199453075571,0.4,0.2307800546924429,0.6,0.41539002734622144,10,0.8996942606415335,0.8094497626313155,1,540.6588638114238,10,0.5552901048820935,0.49438565601137713
2,138,3,0.7958708880275703,0.4,0.20412911197242967,0.6,0.4020645559862148,1,0.6170981822949978,0.38081016659179034,1,599.797863526379,1,0.4834601598222222,0.49438565601137713
2,139,3,0.8529619601805991,0.4,0.1470380398194009,0.6,0.37351901990970043,1,0.6457716021275202,0.4170209621143442,0,541.6974400122854,0,0.5155223031528157,0.49438565601137713
2,140,3,0.8332613771670079,0.4,0.16673862283299212,0.6,0.38336931141649605,2,0.6937234029645877,0.4812521598207677,1,548.3378740507796,2,0.5222009141200247,0.49438565601137713
2,141,3,0.7623632266170519,0.4,0.23763677338294809,0.6,0.41881838669147403,2,0.606568661795942,0.36792554147291995,0,596.6197148170614,0,0.46685408337674256,0.49438565601137713
2,142,3,0.7000665012240979,0.4,0.29993349877590214,0.6,0.44996674938795106,5,0.8609144571394598,0.7411737025117308,1,609.8366716873052,5,0.5117824139856867,0.49438565601137713
2,143,3,0.7122699254221336,0.4,0.28773007457786637,0.6,0.4438650372889332,5,0.6525048796877667,0.4257626180163469,1,537.8298391471894,5,0.45950786982250597,0.49438565601137713
2,144,3,0.8508507088687727,0.4,0.14914929113122732,0.6,0.37457464556561365,5,0.6629102698972719,0.4394500259352738,1,525.5348088649978,5,0.5200131224715412,0.49438565601137713
2,145,3,0.760655029513519,0.4,0.23934497048648096,0.6,0.41967248524324047,5,0.7672875241062114,0.5887301446490399,1,503.05135886177703,5,0.5128027883625922,0.49438565601137713
2,146,3,0.8266379252026927,0.4,0.17336207479730725,0.6,0.3866810373986536,10,0.8851283287855256,0.7834521584186576,1,587.0237920803605,10,0.5780924754905743,0.49438565601137713
2,147,3,0.8247791672583277,0.4,0.17522083274167233,0.6,0.38761041637083615,10,0.8880749859949392,0.7886771807499114,0,563.9812941372437,0,0.5781187272670401,0.49438565601137713
2,148,3,0.78095968581704,0.4,0.21904031418296,0.6,0.40952015709148,10,0.7804076505335521,0.6090361010112988,1,486.263189365296,10,0.5256474149000896,0.49438565601137713
2,149,3,0.8655075791133748,0.4,0.13449242088662516,0.6,0.36724621044331257,1,0.6583465329968023,0.4334201575089098,1,539.2484227318351,1,0.5246625265759605,0.49438565601137713
2,150,3,0.7267607472558977,0.4,0.2732392527441023,0.6,0.43661962637205115,1,0.56802818846348,0.3226560228891028,1,593.7732693353946,1,0.4416981533378555,0.49438565601137713
2,151,4,0.3430403744034475,0.4,0.6569596255965525,0.6,0.6284798127982762,1,0.6812205360345528,0.46406141871520346,1,674.2310563025436,1,0.31230368413746973,0.49438565601137713
2,152,4,0.3129233359688172,0.4,0.6870766640311827,0.6,0.6435383320155914,10,0.6260054803666594,0.39188286144909196,0,628.9140017102303,0,0.2898043128416445,0.49438565601137713
2,153,4,0.39087546691199215,0.4,0.6091245330880078,0.6,0.6045622665440039,10,0.6743294050655084,0.4547201465360025,1,591.0249134916216,10,0.33104651249891553,0.49438565601137713
2,154,4,0.47293207842808355,0.4,0.5270679215719165,0.6,0.5635339607859582,10,0.7442582163500742,0.5539202926045939,1,680.2197906078972,10,0.38065473752843304,0.49438565601137713
2,155,4,0.37889525571400706,0.4,0.6211047442859929,0.6,0.6105523721429964,2,0.6988400574319503,0.48837742587149163,1,607.4488454080903,2,0.3308046152376644,0.49438565601137713
2,156,4,0.3204299059315076,0.4,0.6795700940684923,0.6,0.6397850470342461,10,0.8413440490362109,0.707859808848646,0,551.7599909306334,0,0.3316398300086748,0.49438565601137713
2,157,4,0.35093412440921024,0.4,0.6490658755907898,0.6,0.6245329377953949,2,0.6410125262763462,0.4108970588431834,0,630.8945236719753,0,0.3080730761409685,0.49438565601137713
2,158,4,0.46502643918574077,0.4,0.5349735608142592,0.6,0.5674867804071295,5,0.7642229670892354,0.5840367434266747,0,608.78836643354,0,0.38152487778772604,0.49438565601137713
2,159,4,0.42278671695201236,0.4,0.5772132830479877,0.6,0.5886066415239939,10,0.8513141100511704,0.7247357139722163,1,584.9248274572315,10,0.3808091646639847,0.49438565601137713
2,160,4,0.49765505420002626,0.4,0.5023449457999738,0.6,0.5511724728999869,5,0.669589768105636,0.44835045755175934,1,602.8949069420968,5,0.3746789234451684,0.49438565601137713
2,161,4,0.4432646776125364,0.4,0.5567353223874636,0.6,0.5783676611937318,1,0.6228698174188285,0.3879668094513648,1,615.9322887002571,1,0.34212719834820104,0.49438565601137713
2,162,4,0.4017158578895157,0.4,0.5982841421104843,0.6,0.5991420710552422,10,0.6107565689143182,0.3730235864719903,0,570.0862624996083,0,0.3228422711245788,0.49438565601137713
2,163,4,0.4549307062362364,0.4,0.5450692937637636,0.6,0.5725346468818817,5,0.6281587586225936,0.3945834260342778,0,668.6711119276273,0,0.3479907293434821,0.49438565601137713
2,164,4,0.4099232087437849,0.4,0.590076791256215,0.6,0.5950383956281076,2,0.5707699414834327,0.3257783261010012,1,665.4141539394072,2,0.3180507578011373,0.49438565601137713
2,165,4,0.31643433349528544,0.4,0.6835656665047145,0.6,0.6417828332523572,10,0.7436108905685728,0.5529571565721859,1,630.4604600649176,10,0.3122956765649042,0.49438565601137713
2,166,4,0.4951981699197585,0.4,0.5048018300802415,0.6,0.5524009150401208,5,0.6600337349804035,0.43564453131218156,0,587.1752501912435,0,0.3715147903898796,0.49438565601137713
2,167,4,0.4549267561275576,0.4,0.5450732438724424,0.6,0.5725366219362211,1,0.6319403941189968,0.399348661719273,0,637.2823692108908,0,0.3487973768344205,0.49438565601137713
2,168,4,0.36444310068892566,0.4,0.6355568993110743,0.6,0.6177784496555372,10,0.8826133071932174,0.7790062500345487,0,687.0357829282894,0,0.359787688487254,0.49438565601137713
2,169,4,0.4623539576180275,0.4,0.5376460423819724,0.6,0.5688230211909862,10,0.7821592815630279,0.611773141735192,1,547.0158716527028,10,0.38421302739039453,0.49438565601137713
2,170,4,0.3751985779882623,0.4,0.6248014220117377,0.6,0.6124007110058689,2,0.8550535325967037,0.7311165436061022,0,543.0544417560061,0,0.3595087151402668,0.49438565601137713
2,171,4,0.348138542366501,0.4,0.651861457633499,0.6,0.6259307288167495,1,0.6347836970156623,0.40295034199687213,1,726.4500752110216,1,0.30576117304245426,0.49438565601137713
2,172,4,0.49848308009789405,0.4,0.5015169199021059,0.6,0.5507584599510529,2,0.6780999933785046,0.45981960101992797,0,610.7124626381577,0,0.3769361126907437,0.49438565601137713
2,173,4,0.48378530672791087,0.4,0.5162146932720891,0.6,0.5581073466360446,2,0.5237635653159636,0.27432827235248963,0,645.3328363632372,0,0.336669962488396,0.49438565601137713
2,174,4,0.44963838119579946,0.4,0.5503616188042005,0.6,0.5751808094021003,2,0.7146670390205476,0.5107489766623969,1,659.7612317928416,2,0.3642117318308032,0.49438565601137713
2,175,4,0.40900538377938767,0.4,0.5909946162206123,0.6,0.5954973081103061,5,0.7152171467568653,0.5115355670150314,0,521.2526910503673,0,0.3469049765192561,0.49438565601137713
2,176,4,0.32158874292929285,0.4,0.6784112570707072,0.6,0.6392056285353536,1,0.7218130997967978,0.5210141510382619,1,648.4759042705018,1,0.3106102375603901,0.49438565601137713
2,177,4,0.4011705385903658,0.4,0.5988294614096342,0.6,0.5994147307048171,10,0.6479710769876521,0.41986651661253777,0,526.3968050968889,0,0.3300764688328856,0.49438565601137713
2,178,4,0.44868475721532186,0.4,0.5513152427846781,0.6,0.575657621392339,5,0.7453250061300876,0.5555093647628151,0,510.126647846902,0,0.37030768227233596,0.49438565601137713
2,179,4,0.47466458317216154,0.4,0.5253354168278385,0.6,0.5626677084139192,5,0.6728834100109146,0.45277208346791653,1,652.389017353422,5,0.36580296762820524,0.49438565601137713
2,180,4,0.4116084650297934,0.4,0.5883915349702066,0.6,0.5941957674851033,10,0.8305488171182754,0.6898113376165665,0,548.8681934090944,0,0.3714222289058669,0.49438565601137713
2,181,4,0.3198356199174432,0.4,0.6801643800825568,0.6,0.6400821900412783,10,0.7608637044554688,0.5789135767576989,0,656.781875567857,0,0.31688310407170706,0.49438565601137713
2,182,4,0.4484696101145018,0.4,0.5515303898854982,0.6,0.5757651949427491,2,0.5288071532340732,0.27963700531152463,0,642.0789765704244,0,0.32428660231119383,0.49438565601137713
2,183,4,0.45675835689707944,0.4,0.5432416431029206,0.6,0.5716208215514602,10,0.8775896094527444,0.7701635226194206,0,587.8813112342661,0,0.4021601471804407,0.49438565601137713
2,184,4,0.46653609386940864,0.4,0.5334639061305914,0.6,0.5667319530652957,2,0.5031540203513473,0.25316396819572395,1,564.3887748230369,2,0.3256343033198385,0.49438565601137713
2,185,4,0.361120843098043,0.4,0.638879156901957,0.6,0.6194395784509785,10,0.6291757174133443,0.39586208338259654,0,623.206918630228,0,0.3099998988981259,0.49438565601137713
2,186,4,0.42867303598235684,0.4,0.5713269640176432,0.6,0.5856634820088216,2,0.6711442089082164,0.45043454915103553,0,655.2141653054794,0,0.34620803629007646,0.49438565601137713
2,187,4,0.38252436816972474,0.4,0.6174756318302752,0.6,0.6087378159151375,10,0.7017368142063515,0.49243455641247946,0,591.8563556379602,0,0.33291263133199644,0.49438565601137713
2,188,4,0.38046542493731117,0.4,0.6195345750626888,0.6,0.6097672875313445,5,0.9050252929725976,0.8190707809201361,1,577.6267955956487,5,0.371701593699046,0.49438565601137713
2,189,4,0.41599675748562626,0.4,0.5840032425143737,0.6,0.5920016212571868,5,0.6618749298167458,0.43807842271992214,0,616.9540481521716,0,0.3390211385192794,0.49438565601137713
2,190,4,0.41987379313258677,0.4,0.5801262068674132,0.6,0.5900631034337066,5,0.7644250636779412,0.5843456779790244,0,573.0171388458912,0,0.3616514674139599,0.49438565601137713
2,191,4,0.3154116558268662,0.4,0.6845883441731337,0.6,0.6422941720865669,2,0.7570392038642862,0.5731083561874724,0,659.400806258358,0,0.3142515815473169,0.49438565601137713
2,192,4,0.3419683989712819,0.4,0.6580316010287182,0.6,0.6290158005143591,10,0.4546194169013184,0.20667881422369475,1,683.289630445649,10,0.2698204099677027,0.49438565601137713
2,193,4,0.3656385507218623,0.4,0.6343614492781378,0.6,0.6171807246390688,5,0.6186412525700928,0.3827169993814934,1,557.7214558803287,5,0.3098235356890965,0.49438565601137713
2,194,4,0.4602733831639038,0.4,0.5397266168360961,0.6,0.569863308418048,5,0.5872342654600209,0.3448440825303703,0,704.9401942961217,0,0.34136384785524154,0.49438565601137713
2,195,4,0.4571303236160464,0.4,0.5428696763839536,0.6,0.5714348381919767,5,0.7744239704259113,0.5997324859702327,0,637.7738475350509,0,0.3802281480008079,0.49438565601137713
2,196,4,0.3405872735149804,0.4,0.6594127264850196,0.6,0.6297063632425097,10,0.5905813370391972,0.34878631565900586,1,571.1302489304974,10,0.29449107392541785,0.49438565601137713
2,197,4,0.30483835277827104,0.4,0.695161647221729,0.6,0.6475808236108644,2,0.8184081375131004,0.6697918795476618,0,649.1781085056662,0,0.32042094908083435,0.49438565601137713
2,198,4,0.4565163879702676,0.4,0.5434836120297324,0.6,0.5717418060148662,5,0.6427643591070875,0.41314602133834494,0,527.5109525304114,0,0.35176364878717353,0.49438565601137713
2,199,4,0.46838671335836174,0.4,0.5316132866416383,0.6,0.5658066433208191,1,0.3626511446594045,0.13151585272277633,0,593.5019618721309,0,0.29582703724119747,0.49438565601137713
2,200,4,0.4412038015328049,0.4,0.5587961984671951,0.6,0.5793980992335975,2,0.6690669651500756,0.44765060385513245,0,587.9900306627488,0,0.3510063690242663,0.49438565601137713
3,1,1,0.7270708164555371,0.9,0.27292918354446294,0.09999999999999998,0.18646459177223146,5,0.6930659524666387,0.48034041446848913,1,527.280637903288,5,0.6886845503982414,0.8096214706451432
3,2,1,0.7565491379157524,0.9,0.2434508620842476,0.09999999999999998,0.1717254310421238,2,0.5335552597459131,0.2846812152025288,1,453.53931137020066,2,0.635102410869565,0.8096214706451432
3,3,1,0.8812509161042074,0.9,0.11874908389579264,0.09999999999999998,0.10937454194789631,10,0.828378076118014,0.6862102369929821,1,462.23844686148897,10,0.8142000307675151,0.8096214706451432
3,4,1,0.8689578872572044,0.9,0.13104211274279565,0.09999999999999998,0.11552105637139781,2,0.6221493018566125,0.3870697538006704,1,435.08080276836694,2,0.7173784504570055,0.8096214706451432
3,5,1,0.7125306406910709,0.9,0.28746935930892914,0.09999999999999998,0.19373467965446456,2,0.43910876138321747,0.19281650432350342,1,553.3954668487459,2,0.5801517432543533,0.8096214706451432
3,6,1,0.8543715452363243,0.9,0.1456284547636757,0.09999999999999998,0.12281422738183784,2,0.6498900009025754,0.4223570132731495,1,476.2218210200642,2,0.723630017588353,0.8096214706451432
3,7,1,0.8873644924066184,0.9,0.11263550759338159,0.09999999999999998,0.10631775379669078,2,0.6718910505098615,0.4514375837552453,1,492.47518846968205,2,0.7470696747134317,0.8096214706451432
3,8,1,0.7988962262590186,0.9,0.20110377374098143,0.09999999999999998,0.1505518868704907,1,0.6840504265579561,0.4679249860741217,1,414.0460522468891,1,0.7152567286273005,0.8096214706451432
3,9,1,0.8130660509143219,0.9,0.18693394908567806,0.09999999999999998,0.14346697454283902,5,0.7316026019607439,0.5352423671957307,0,463.30968686566547,0,0.7415874077734641,0.8096214706451432
3,10,1,0.7366030888469454,0.9,0.26339691115305464,0.09999999999999998,0.1816984555765273,1,0.5676445320135753,0.322220314724911,1,470.6533340881686,1,0.6414029708268605,0.8096214706451432
3,11,1,0.8701232115682276,0.9,0.12987678843177242,0.09999999999999998,0.1149383942158862,5,0.7399691516493452,0.5475543453926516,1,462.24199717105677,5,0.7699899456867959,0.8096214706451432
3,12,1,0.7807955752653096,0.9,0.21920442473469037,0.09999999999999998,0.15960221236734518,5,0.717618764977096,0.5149766918472525,1,457.76739525832784,5,0.7217415050415422,0.8096214706451432
3,13,1,0.7163450691493556,0.9,0.2836549308506444,0.09999999999999998,0.1918274654253222,2,0.6099988357872472,0.372098579661797,1,554.06288259468,2,0.65057841989023,0.8096214706451432
3,14,1,0.8328375829010835,0.9,0.16716241709891655,0.09999999999999998,0.13358120854945826,1,0.5566822297276112,0.30989510489450484,1,584.9066040570764,1,0.6743693680765657,0.8096214706451432
3,15,1,0.8301946934301908,0.9,0.1698053065698092,0.09999999999999998,0.13490265328490458,2,0.7211168639999246,0.5200095315450858,1,433.8976560746361,2,0.7444668162164703,0.8096214706451432
3,16,1,0.7711946747589705,0.9,0.22880532524102948,0.09999999999999998,0.16440266262051473,5,0.6351040207390881,0.40335711715895606,1,445.85079637973297,5,0.6831442830340363,0.8096214706451432
3,17,1,0.7660430129742994,0.9,0.23395698702570056,0.09999999999999998,0.16697849351285027,2,0.6663718785470992,0.44405148051838994,1,441.5904062325756,2,0.6940618063175632,0.8096214706451432
3,18,1,0.7510986689311209,0.9,0.24890133106887913,0.09999999999999998,0.17445066553443955,1,0.6407419146476042,0.4105502011862777,0,486.6650834634034,0,0.6772566978335395,0.8096214706451432
3,19,1,0.7054334842451119,0.9,0.2945665157548881,0.09999999999999998,0.19728325787744405,1,0.5863236657021657,0.3437754409624249,1,465.70562353898805,1,0.6366842824421765,0.8096214706451432
3,20,1,0.7781456731227226,0.9,0.22185432687727735,0.09999999999999998,0.16092716343863867,5,0.7297742276150161,0.5325704232910933,0,437.7111737653308,0,0.7257032838878347,0.8096214706451432
3,21,1,0.7760840015015125,0.9,0.22391599849848753,0.09999999999999998,0.16195799924924376,5,0.5640997660981375,0.3182085461119734,1,479.03825371583594,5,0.6553906486773365,0.8096214706451432
3,22,1,0.7188072208868532,0.9,0.2811927791131468,0.09999999999999998,0.19059638955657338,10,0.8422825863234952,0.7094399552237961,1,541.3717559582562,10,0.7455750884136453,0.8096214706451432
3,23,1,0.8595828319231789,0.9,0.14041716807682114,0.09999999999999998,0.12020858403841056,5,0.42626477983024935,0.18170166252373096,1,546.6048397070448,5,0.6274077550914998,0.8096214706451432
3,24,1,0.7332068626832391,0.9,0.2667931373167609,0.09999999999999998,0.18339656865838044,10,0.7751191252739156,0.6008096583654,1,457.3246349080227,10,0.7247841843694068,0.8096214706451432
3,25,1,0.8787979420015741,0.9,0.12120205799842587,0.09999999999999998,0.11060102899921292,10,0.7795237755644601,0.6076573166702707,0,502.44241325243195,0,0.791353307429233,0.8096214706451432
3,26,1,0.8935511754206777,0.9,0.10644882457932225,0.09999999999999998,0.10322441228966112,5,0.7223466426360854,0.5217846721276245,1,470.7945663060572,5,0.7722792113454523,0.8096214706451432
3,27,1,0.8934253230518341,0.9,0.10657467694816591,0.09999999999999998,0.10328733847408295,5,0.5974193875041491,0.3569099245658327,0,469.19349174163676,0,0.716213095270973,0.8096214706451432
3,28,1,0.7646022396772427,0.9,0.23539776032275728,0.09999999999999998,0.16769888016137863,10,0.7954880893883142,0.6328013003586705,1,520.0473548935753,10,0.7471933737274004,0.8096214706451432
3,29,1,0.7025215039951518,0.9,0.2974784960048482,0.09999999999999998,0.1987392480024241,1,0.5632264731738129,0.3172240600838118,1,531.2336753850097,1,0.6262760097188838,0.8096214706451432
3,30,1,0.8946914779952346,0.9,0.10530852200476537,0.09999999999999998,0.10265426100238267,10,0.8645282852024679,0.7474091559151197,1,459.5530957581391,10,0.8365632559834844,0.8096214706451432
3,31,1,0.8420485597246623,0.9,0.1579514402753377,0.09999999999999998,0.12897572013766884,10,0.6952374299962227,0.4833550840677527,1,523.3279028944911,10,0.7382964808290644,0.8096214706451432
3,32,1,0.8638510209742922,0.9,0.13614897902570777,0.09999999999999998,0.11807448951285388,10,0.7319938354073745,0.5358149750743985,1,436.98421725170783,10,0.7637447737261195,0.8096214706451432
3,33,1,0.8651956425416164,0.9,0.1348043574583836,0.09999999999999998,0.11740217872919179,2,0.5646804147004332,0.31886397074625317,0,560.8049436351621,0,0.6904917624998534,0.8096214706451432
3,34,1,0.8479342601453528,0.9,0.15206573985464722,0.09999999999999998,0.1260328699273236,2,0.7019369007118197,0.492715412580915,1,530.4691687414697,2,0.7437184543399473,0.8096214706451432
3,35,1,0.7704749893219308,0.9,0.22952501067806919,0.09999999999999998,0.16476250533903458,1,0.6501559902166348,0.42270281161457296,1,503.5352234710118,1,0.6891360775341633,0.8096214706451432
3,36,1,0.7062231199834715,0.9,0.29377688001652846,0.09999999999999998,0.19688844000826422,1,0.49519430678033616,0.2452174014676577,0,568.9310707475238,0,0.6004039161045589,0.8096214706451432
3,37,1,0.7139282296324811,0.9,0.28607177036751885,0.09999999999999998,0.19303588518375941,5,0.7450210103461502,0.5550563058571985,0,433.08061496611765,0,0.7040846674748613,0.8096214706451432
3,38,1,0.7145341743220032,0.9,0.28546582567799683,0.09999999999999998,0.1927329128389984,10,0.9428491407063827,0.8889645021307643,1,514.1622598337531,10,0.7841990833056482,0.8096214706451432
3,39,1,0.7610621353393462,0.9,0.2389378646606538,0.09999999999999998,0.1694689323303269,5,0.8452066093151099,0.7143742124299449,0,440.53681707547645,0,0.7662507076528079,0.8096214706451432
3,40,1,0.7465526294202577,0.9,0.2534473705797423,0.09999999999999998,0.17672368528987115,1,0.6728825725245057,0.4527709564071966,1,541.213840432322,1,0.6886222996253873,0.8096214706451432
3,41,1,0.881439006141166,0.9,0.11856099385883401,0.09999999999999998,0.10928049692941699,5,0.5467595714278728,0.2989460289479911,1,406.70665028099955,5,0.6888644584159515,0.8096214706451432
3,42,1,0.77632238797344,0.9,0.22367761202656,0.09999999999999998,0.16183880601328,2,0.6552715361355487,0.4293807860694417,1,479.85218499322184,2,0.6936921835498018,0.8096214706451432
3,43,1,0.7845096856623889,0.9,0.21549031433761112,0.09999999999999998,0.15774515716880555,1,0.565377011079969,0.31965116465771937,0,487.416284256735,0,0.6592231842193621,0.8096214706451432
3,44,1,0.7254907918845738,0.9,0.27450920811542623,0.09999999999999998,0.1872546040577131,1,0.6626469677418859,0.439101003857516,0,476.93435056392957,0,0.6756543340548108,0.8096214706451432
3,45,1,0.8609813553682877,0.9,0.13901864463171232,0.09999999999999998,0.11950932231585615,10,0.8352982165931495,0.6977231106436961,1,460.0387666171212,10,0.8079814852403014,0.8096214706451432
3,46,1,0.8256476220926563,0.9,0.1743523779073437,0.09999999999999998,0.13717618895367184,1,0.6681157834239817,0.44637870006024083,1,455.01744248110475,1,0.7196450087602057,0.8096214706451432
3,47,1,0.8407371954921592,0.9,0.1592628045078408,0.09999999999999998,0.1296314022539204,1,0.5888106308739173,0.34669795903014045,1,469.07732203084777,1,0.6914254404388976,0.8096214706451432
3,48,1,0.8134341559838771,0.9,0.18656584401612286,0.09999999999999998,0.14328292200806142,10,0.9029159757907748,0.8152572593382069,1,371.8777486015116,10,0.8151303072218256,0.8096214706451432
3,49,1,0.7599838223013969,0.9,0.24001617769860306,0.09999999999999998,0.17000808884930152,2,0.5654181108391775,0.3196976400649444,0,501.8981603826335,0,0.6496421847826624,0.8096214706451432
3,50,1,0.8754523525652359,0.9,0.1245476474347641,0.09999999999999998,0.11227382371738204,1,0.6878703421000981,0.47316560754090603,1,475.61765460378695,1,0.7491833424266773,0.8096214706451432
3,51,2,0.3157938324381657,0.9,0.6842061675618343,0.09999999999999998,0.3921030837809171,1,0.598317340880267,0.3579836403980336,0,597.5527718865376,0,0.4858060913302994,0.8096214706451432
3,52,2,0.35355533509766685,0.9,0.6464446649023332,0.09999999999999998,0.3732223324511666,2,0.6629592403112519,0.43951495431407217,1,603.7646908346343,2,0.5211528569355333,0.8096214706451432
3,53,2,0.46627470287714196,0.9,0.5337252971228581,0.09999999999999998,0.31686264856142904,5,0.8631780225733068,0.7450762986535641,0,504.52801996937285,0,0.6364032497996415,0.8096214706451432
3,54,2,0.3065291355091337,0.9,0.6934708644908663,0.09999999999999998,0.3967354322454331,5,0.7517594046758556,0.5651422025185968,0,678.2214074908925,0,0.5283871900358887,0.8096214706451432
3,55,2,0.36338931755822385,0.9,0.6366106824417761,0.09999999999999998,0.36830534122088804,10,0.6305209626690769,0.3975566843651394,0,541.9426203308495,0,0.5149956915727157,0.8096214706451432
3,56,2,0.3329649350693524,0.9,0.6670350649306476,0.09999999999999998,0.3835175324653238,2,0.8184469902899137,0.6698554759146181,0,598.956283389808,0,0.5605203438274659,0.8096214706451432
3,57,2,0.4405267546171032,0.9,0.5594732453828968,0.09999999999999998,0.3297366226914484,10,0.675187673219539,0.455878394067615,1,550.8382256380361,10,0.5614084737388912,0.8096214706451432
3,58,2,0.4573500670308874,0.9,0.5426499329691126,0.09999999999999998,0.3213249664845563,5,0.7331614733929478,0.5375257460677181,0,530.2483009863838,0,0.5881267105213174,0.8096214706451432
3,59,2,0.44871878323531195,0.9,0.5512812167646881,0.09999999999999998,0.32564060838234404,1,0.574284768273283,0.3298029950706984,0,462.825559581211,0,0.5308168592828568,0.8096214706451432
3,60,2,0.30058420652427237,0.9,0.6994157934757277,0.09999999999999998,0.39970789673786383,1,0.5890143054518721,0.3469378520269512,1,559.1590986237513,1,0.47693636976666337,0.8096214706451432
3,61,2,0.35536286155826113,0.9,0.6446371384417389,0.09999999999999998,0.3723185692208694,1,0.5036868168344891,0.2537004094528602,0,431.6695798657248,0,0.4719181463171942,0.8096214706451432
3,62,2,0.3939487525981368,0.9,0.6060512474018632,0.09999999999999998,0.3530256237009316,10,0.6585865606525056,0.4337362578720965,0,506.5785213034014,0,0.5365315028080859,0.8096214706451432
3,63,2,0.30110115983208413,0.9,0.6988988401679159,0.09999999999999998,0.39944942008395795,2,0.6106802737121015,0.37293039670108724,0,597.5390721921318,0,0.4836474862185659,0.8096214706451432
3,64,2,0.3877076977074871,0.9,0.6122923022925129,0.09999999999999998,0.3561461511462564,10,0.55938819333542,0.3129151508430652,0,556.6563299677057,0,0.5020090450680478,0.8096214706451432
3,65,2,0.37940300824743833,0.9,0.6205969917525617,0.09999999999999998,0.3602984958762808,1,0.7279554451097171,0.5299191300648863,0,506.5295187567741,0,0.5526878486477284,0.8096214706451432
3,66,2,0.475972535472232,0.9,0.524027464527768,0.09999999999999998,0.312013732263884,5,0.6894140445683743,0.4752917248481244,0,578.4700308543285,0,0.581146831591786,0.8096214706451432
3,67,2,0.4985633677998141,0.9,0.501436632200186,0.09999999999999998,0.300718316100093,1,0.7801441679785063,0.6086249228308758,0,476.73356363537397,0,0.6224111056843044,0.8096214706451432
3,68,2,0.43418860094850154,0.9,0.5658113990514985,0.09999999999999998,0.3329056995257492,1,0.47985492822715436,0.23026075214388747,0,596.6381327388152,0,0.493601394074533,0.8096214706451432
3,69,2,0.49101210229699777,0.9,0.5089878977030022,0.09999999999999998,0.3044939488515011,2,0.716294570249088,0.5130779113683257,1,540.702003760445,2,0.5968466295807766,0.8096214706451432
3,70,2,0.4435144249463189,0.9,0.5564855750536811,0.09999999999999998,0.32824278752684055,5,0.7048297125086024,0.4967849236349591,0,497.25122174934603,0,0.5726158277080983,0.8096214706451432
3,71,2,0.322897527613181,0.9,0.677102472386819,0.09999999999999998,0.3885512361934095,2,0.7166307127016556,0.5135595783872828,1,599.1819834082658,2,0.5248158635969269,0.8096214706451432
3,72,2,0.4192643037720737,0.9,0.5807356962279263,0.09999999999999998,0.34036784811396315,10,0.739414389538553,0.546733639456671,1,532.011509628272,10,0.5736868283964264,0.8096214706451432
3,73,2,0.37095425836719687,0.9,0.6290457416328031,0.09999999999999998,0.36452287081640156,5,0.8664786931785335,0.7507853257323792,0,469.44975772289473,0,0.5930522608117245,0.8096214706451432
3,74,2,0.4776078128720236,0.9,0.5223921871279764,0.09999999999999998,0.3111960935639882,1,0.6546760105808065,0.42860067883000025,0,565.8381570172132,0,0.5698736499870076,0.8096214706451432
3,75,2,0.4447946110932187,0.9,0.5552053889067813,0.09999999999999998,0.32760269445339063,5,0.7113707130004259,0.5060482913147343,0,611.4756963261918,0,0.575360528106433,0.8096214706451432
3,76,2,0.49825264534672664,0.9,0.5017473546532734,0.09999999999999998,0.30087367732663667,2,0.6437403561820951,0.4144016461774507,1,515.4822247161545,2,0.5745910753236962,0.8096214706451432
3,77,2,0.3972000987595206,0.9,0.6027999012404794,0.09999999999999998,0.3513999506202397,1,0.7211817533381234,0.5201031213478499,0,523.5087688478677,0,0.5581792851033247,0.8096214706451432
3,78,2,0.3432102730023374,0.9,0.6567897269976626,0.09999999999999998,0.3783948634988313,1,0.7318393506105387,0.535588835102055,0,604.7007434962027,0,0.5382601179671798,0.8096214706451432
3,79,2,0.438498565333845,0.9,0.561501434666155,0.09999999999999998,0.3307507173330775,2,0.5768717571637229,0.33278102421316125,0,533.1352861991327,0,0.5276601461697756,0.8096214706451432
3,80,2,0.47234849898365905,0.9,0.527651501016341,0.09999999999999998,0.31382575050817046,2,0.7879015194323311,0.620788804323776,0,502.85524747927036,0,0.6134059916308907,0.8096214706451432
3,81,2,0.47151246753225673,0.9,0.5284875324677433,0.09999999999999998,0.3142437662338716,5,0.6552402235831172,0.4293397506012534,0,540.3555331047833,0,0.5675456508512814,0.8096214706451432
3,82,2,0.30246194060321513,0.9,0.6975380593967848,0.09999999999999998,0.3987690296983924,5,0.8448795906517568,0.7138215226998801,0,574.121086206361,0,0.5545993731885942,0.8096214706451432
3,83,2,0.3749105774040243,0.9,0.6250894225959758,0.09999999999999998,0.3625447112979879,10,0.7894984795696242,0.6233078492427483,1,478.33183131604017,10,0.5703626349629333,0.8096214706451432
3,84,2,0.4523813640264831,0.9,0.5476186359735169,0.09999999999999998,0.32380931798675844,5,0.8216270318781019,0.6750709795128196,1,584.7642827477151,5,0.6158836125297052,0.8096214706451432
3,85,2,0.31434237776953017,0.9,0.6856576222304698,0.09999999999999998,0.3928288111152349,2,0.5718120759096975,0.3269690501561577,0,571.0852005415647,0,0.47717950341676085,0.8096214706451432
3,86,2,0.40621706897704857,0.9,0.5937829310229514,0.09999999999999998,0.3468914655114757,10,0.9393491989776999,0.8823769176200463,1,487.0277188231029,10,0.6333027566029096,0.8096214706451432
3,87,2,0.39711793993187955,0.9,0.6028820600681204,0.09999999999999998,0.3514410300340602,10,0.7513808483694323,0.5645731792963679,1,551.2035780966623,10,0.5679368795182763,0.8096214706451432
3,88,2,0.3198604405507386,0.9,0.6801395594492614,0.09999999999999998,0.3900697797246307,2,0.6491880509180321,0.42144512545475343,1,533.6015773314797,2,0.5029448155859712,0.8096214706451432
3,89,2,0.30467041926563715,0.9,0.6953295807343629,0.09999999999999998,0.39766479036718144,5,0.6823208257266455,0.4655617092202914,1,492.13420006392744,5,0.5066605336168577,0.8096214706451432
3,90,2,0.46709604727646553,0.9,0.5329039527235344,0.09999999999999998,0.3164519763617672,1,0.6256214284648234,0.39140217175436615,0,543.8225713151018,0,0.5555951573055454,0.8096214706451432
3,91,2,0.42058857529589233,0.9,0.5794114247041077,0.09999999999999998,0.3397057123520538,10,0.6665715557656825,0.4443176389558824,0,540.0045523038998,0,0.5502138391143154,0.8096214706451432
3,92,2,0.33031685857397597,0.9,0.669683141426024,0.09999999999999998,0.384841570713012,1,0.49038474987524255,0.2404772029102042,0,510.0756227808891,0,0.4584113708832674,0.8096214706451432
3,93,2,0.3308290086356974,0.9,0.6691709913643026,0.09999999999999998,0.3845854956821513,1,0.5206219774809046,0.27104724343612746,1,569.479904676082,1,0.46790641026311885,0.8096214706451432
3,94,2,0.4677098429805656,0.9,0.5322901570194344,0.09999999999999998,0.3161450785097172,5,0.5846936886011247,0.341866709489989,1,492.7036729884123,5,0.5418502890022344,0.8096214706451432
3,95,2,0.311529516439805,0.9,0.688470483560195,0.09999999999999998,0.3942352417800975,2,0.5470676895204907,0.29928305691728796,0,600.8767889553098,0,0.4685795424461016,0.8096214706451432
3,96,2,0.40896553150903736,0.9,0.5910344684909626,0.09999999999999998,0.3455172342454813,1,0.5330061745592678,0.28409558211830466,0,562.316896023275,0,0.501663060522152,0.8096214706451432
3,97,2,0.42524686428421277,0.9,0.5747531357157872,0.09999999999999998,0.3373765678578936,5,0.7529269351449347,0.5668989696667447,0,493.2162763521585,0,0.5807652310300401,0.8096214706451432
3,98,2,0.36009787712008645,0.9,0.6399021228799135,0.09999999999999998,0.36995106143995676,2,0.8516211563632912,0.7252585939655493,1,582.1911149543959,2,0.5833059720910057,0.8096214706451432
3,99,2,0.3790275486528637,0.9,0.6209724513471363,0.09999999999999998,0.36048622567356814,10,0.7908616547339575,0.6254621569285335,0,567.0983397122053,0,0.5726403480576963,0.8096214706451432
3,100,2,0.32647447580699446,0.9,0.6735255241930056,0.09999999999999998,0.3867627620965028,5,0.7123746281833674,0.5074776108793909,0,568.1760243988857,0,0.5250459436215981,0.8096214706451432
3,101,3,0.8739938319295371,0.4,0.12600616807046294,0.6,0.36300308403523146,1,0.6911582929615186,0.4776997859294804,1,621.2355760818809,1,0.5386313085123651,0.8096214706451432
3,102,3,0.8361511785920971,0.4,0.1638488214079029,0.6,0.38192441070395144,1,0.6494770764506304,0.42182047283485796,0,491.0000351234853,0,0.5097507580287733,0.8096214706451432
3,103,3,0.7966814871946293,0.4,0.20331851280537072,0.6,0.40165925640268535,10,0.6881709255132716,0.47357922272179287,1,547.7498024424042,10,0.505050723445489,0.8096214706451432
3,104,3,0.8044888290810929,0.4,0.19551117091890713,0.6,0.39775558545945355,2,0.6294026987486736,0.3961477571921136,1,625.1083104215096,2,0.49064933717934067,0.8096214706451432
3,105,3,0.7984650960002364,0.4,0.2015349039997636,0.6,0.4007674519998818,2,0.742978082941972,0.5520164317321278,1,561.2793126737449,2,0.5222245988748395,0.8096214706451432
3,106,3,0.7886911672763808,0.4,0.21130883272361922,0.6,0.4056544163618096,5,0.802391545300166,0.6438321919691883,0,616.05315269579,0,0.5356217274679834,0.8096214706451432
3,107,3,0.7400949031056805,0.4,0.2599050968943195,0.6,0.42995254844715974,1,0.5322578891891916,0.2832984606041338,1,623.9144255258803,1,0.43672985242701645,0.8096214706451432
3,108,3,0.762379816000856,0.4,0.23762018399914397,0.6,0.418810091999572,5,0.8195259972009874,0.6716228600882728,1,396.6709961465589,5,0.5287450734588145,0.8096214706451432
3,109,3,0.8852765213460174,0.4,0.11472347865398258,0.6,0.3573617393269913,10,1.0,1.0,1,530.2120521154693,10,0.6426382606730088,0.8096214706451432
3,110,3,0.8639595609969455,0.4,0.13604043900305451,0.6,0.36802021950152725,1,0.569960976755417,0.324855515023989,0,519.2119930849616,0,0.4960917967405282,0.8096214706451432
3,111,3,0.7017726570226938,0.4,0.29822734297730624,0.6,0.4491136714886531,5,0.7460667460769882,0.5566155896019052,0,542.3038449704806,0,0.4809421495410531,0.8096214706451432
3,112,3,0.7138059081775698,0.4,0.28619409182243016,0.6,0.44309704591121507,1,0.7531674541438987,0.5672612139816018,0,595.3269348496534,0,0.48817206711252575,0.8096214706451432
3,113,3,0.8532231865591172,0.4,0.14677681344088278,0.6,0.3733884067204414,10,0.8288243505521027,0.6869498040681148,1,544.7900284482853,10,0.5729812700639536,0.8096214706451432
3,114,3,0.8446298972929259,0.4,0.15537010270707408,0.6,0.377685051353537,2,0.5224757677213615,0.2729809278560261,1,479.4300184843202,2,0.47372971460250174,0.8096214706451432
3,115,3,0.7697641067938958,0.4,0.23023589320610416,0.6,0.41511794660305207,5,0.8700565392161215,0.7569983814327343,1,631.5514873794363,5,0.5468812543125575,0.8096214706451432
3,116,3,0.7012177496479678,0.4,0.2987822503520322,0.6,0.4493911251760161,5,0.5690622666408377,0.3238318633144079,1,588.575796257368,5,0.4319698045819407,0.8096214706451432
3,117,3,0.8001248536140836,0.4,0.1998751463859164,0.6,0.3999375731929582,2,0.6755922185249041,0.45642484573140185,1,471.53035482748095,2,0.5027299664935245,0.8096214706451432
3,118,3,0.8420220112843413,0.4,0.1579779887156587,0.6,0.37898899435782935,10,0.7889449675494797,0.6224341618216497,1,496.63063454490054,10,0.5554772566682015,0.8096214706451432
3,119,3,0.860696548659377,0.4,0.13930345134062305,0.6,0.3696517256703115,2,0.6385879043642548,0.4077945116003307,1,512.1500380995873,2,0.5164405289267543,0.8096214706451432
3,120,3,0.8166514984912231,0.4,0.1833485015087769,0.6,0.39167425075438844,5,0.8252619524585434,0.6810572901756872,0,473.0131602377886,0,0.5551769223994256,0.8096214706451432
3,121,3,0.8206986192086757,0.4,0.1793013807913243,0.6,0.38965069039566214,1,0.8114757427250066,0.658492881031101,1,511.8187606151247,1,0.5528164844686064,0.8096214706451432
3,122,3,0.8439582906709372,0.4,0.1560417093290628,0.6,0.3780208546645314,10,1.0,1.0,1,448.88803217221766,10,0.6219791453354686,0.8096214706451432
3,123,3,0.7143551612453025,0.4,0.2856448387546975,0.6,0.44282241937734873,10,0.6136034226671383,0.37650916030882675,1,661.519315044669,10,0.44953182556305277,0.8096214706451432
3,124,3,0.7606388118922092,0.4,0.23936118810779083,0.6,0.4196805940538954,5,0.8661415982525186,0.7502012682234273,1,677.2730203364706,5,0.5414790918546077,0.8096214706451432
3,125,3,0.8550692300806271,0.4,0.14493076991937293,0.6,0.37246538495968645,2,0.5735549494020802,0.32896527998362274,0,538.1728795977833,0,0.49373009970890724,0.8096214706451432
3,126,3,0.864755618020233,0.4,0.13524438197976696,0.6,0.36762219098988347,5,0.7004748449452406,0.49066500840105887,1,541.0081218710462,5,0.5376712783616445,0.8096214706451432
3,127,3,0.8413952974911432,0.4,0.15860470250885683,0.6,0.3793023512544284,5,0.6657199283000522,0.4431830229358267,1,669.1071919493098,5,0.5169542214822421,0.8096214706451432
3,128,3,0.8880897011472345,0.4,0.11191029885276549,0.6,0.35595514942638273,10,0.831162000696391,0.6908302714016274,1,508.4840433194424,10,0.5896752285572966,0.8096214706451432
3,129,3,0.754078657276905,0.4,0.24592134272309496,0.6,0.42296067136154747,5,0.7806982041548394,0.6094896859705913,0,601.8154087959379,0,0.5137664481166033,0.8096214706451432
3,130,3,0.8885967633632085,0.4,0.11140323663679152,0.6,0.35570161831839575,5,0.7411485873783017,0.5493012285728521,0,570.3982928616208,0,0.5609096085575256,0.8096214706451432
3,131,3,0.7178579049051146,0.4,0.2821420950948854,0.6,0.4410710475474427,2,0.7021265780339291,0.4929817315816351,0,534.3650708223021,0,0.47568391260108,0.8096214706451432
3,132,3,0.8688497404811637,0.4,0.1311502595188363,0.6,0.36557512975941814,5,0.8597505115784808,0.7391709421594594,0,585.5040238602884,0,0.5899359884940168,0.8096214706451432
3,133,3,0.8522075580501566,0.4,0.14779244194984342,0.6,0.3738962209749217,1,0.700240786071604,0.4903371584781779,1,550.0323267368019,1,0.5322635907060005,0.8096214706451432
3,134,3,0.7950813215700148,0.4,0.20491867842998523,0.6,0.4024593392149926,5,0.7172931922292337,0.5145095236184044,1,555.9973310298863,5,0.5130762544231254,0.8096214706451432
3,135,3,0.8913599630968573,0.4,0.10864003690314272,0.6,0.35432001845157135,10,0.890254229063566,0.7925525923655642,1,572.8565110053243,10,0.6102496578718013,0.8096214706451432
3,136,3,0.8268848290573168,0.4,0.17311517094268325,0.6,0.3865575854713416,5,0.7111983606364258,0.5058031081719396,0,537.4584236368863,0,0.5248608270431454,0.8096214706451432
3,137,3,0.7833008863807758,0.4,0.21669911361922423,0.6,0.4083495568096121,1,0.8289316669755591,0.6871277085148793,1,508.53034164353267,1,0.5410441156655122,0.8096214706451432
3,138,3,0.8739526353363422,0.4,0.12604736466365785,0.6,0.3630236823318289,2,0.6573987721091883,0.4321731455706685,1,561.4234980877803,2,0.5278618833829295,0.8096214706451432
3,139,3,0.8215504244505445,0.4,0.1784495755494555,0.6,0.38922478777472774,2,0.7552091304167499,0.5703408306648236,1,533.0257012676743,2,0.536019114565013,0.8096214706451432
3,140,3,0.8474193100864102,0.4,0.15258068991358975,0.6,0.37629034495679486,2,0.5673898518515549,0.3219312439841294,0,638.2817659646811,0,0.48879809190827683,0.8096214706451432
3,141,3,0.7398430549788106,0.4,0.26015694502118936,0.6,0.43007847251059467,10,0.9707117275657939,0.9422812580337682,0,557.8122107235497,0,0.5615755190077911,0.8096214706451432
3,142,3,0.8087611455732475,0.4,0.19123885442675248,0.6,0.39561942721337623,5,0.6089629173465829,0.3708358347032612,1,501.09875667501035,5,0.4862129647891825,0.8096214706451432
3,143,3,0.724873679800102,0.4,0.275126320199898,0.6,0.437563160099949,2,0.75976377422038,0.5772409926175965,1,541.5170560845266,2,0.4948779880715487,0.8096214706451432
3,144,3,0.8449712998630035,0.4,0.15502870013699654,0.6,0.37751435006849826,1,0.6633789050557822,0.44007157167300853,1,574.2723702737318,1,0.5177147493979991,0.8096214706451432
3,145,3,0.7623727715833766,0.4,0.23762722841662343,0.6,0.4188136142083117,10,0.7879393958316259,0.6208484915035076,1,510.8879777811826,10,0.5195630177389787,0.8096214706451432
